Block_Number,Trial_Number,Subject_Key_Box,Correct_Response,Answered_Correctly,Left_Zoid,Left_Zoid_Orientation,Right_Zoid,Right_Zoid_Orientation,Response.rt.box,Crit Score,Color vision,Handedness,SID
0,0,3,same,TRUE,j,270,j,90,2.485823573,7402,,,18S004
0,1,2,diff,TRUE,s,0,l,0,0.823573687,7402,,,18S004
0,2,2,diff,TRUE,t,270,s,90,1.066448277,7402,,,18S004
0,3,2,diff,TRUE,t,180,z,0,0.801540956,7402,,,18S004
0,4,3,same,TRUE,s,0,s,0,1.15178071,7402,,,18S004
0,5,2,same,FALSE,j,180,j,90,1.617868983,7402,,,18S004
0,6,2,diff,TRUE,t,90,z,0,0.968364006,7402,,,18S004
0,7,3,same,TRUE,j,180,j,270,0.968040907,7402,,,18S004
0,8,2,diff,TRUE,i,0,z,90,0.65106723,7402,,,18S004
0,9,3,same,TRUE,i,90,i,0,0.801575236,7402,,,18S004
0,10,3,same,TRUE,t,180,t,180,0.734572293,7402,,,18S004
0,11,3,same,TRUE,l,180,l,180,0.834641836,7402,,,18S004
0,12,2,diff,TRUE,t,180,j,90,0.467736224,7402,,,18S004
0,13,2,diff,TRUE,i,0,s,0,0.71782256,7402,,,18S004
0,14,2,diff,TRUE,l,270,z,90,0.650300325,7402,,,18S004
0,15,2,diff,TRUE,t,0,j,270,0.684638171,7402,,,18S004
0,16,3,same,TRUE,j,90,j,90,0.517551828,7402,,,18S004
0,17,2,diff,TRUE,t,270,l,0,0.403153607,7402,,,18S004
0,18,3,same,TRUE,l,180,l,0,0.534495201,7402,,,18S004
0,19,3,same,TRUE,j,0,j,90,0.601613745,7402,,,18S004
0,20,2,diff,TRUE,t,180,s,0,0.634544687,7402,,,18S004
0,21,2,diff,TRUE,i,0,t,90,0.551004616,7402,,,18S004
0,22,2,diff,TRUE,s,90,t,0,0.584482201,7402,,,18S004
0,23,2,diff,TRUE,t,180,s,90,0.601371238,7402,,,18S004
0,24,3,same,TRUE,l,0,l,180,0.651441747,7402,,,18S004
0,25,2,diff,TRUE,s,0,j,270,0.467899597,7402,,,18S004
0,26,2,diff,TRUE,l,0,t,180,0.901485417,7402,,,18S004
0,27,2,same,FALSE,t,180,t,270,0.466609024,7402,,,18S004
0,28,2,diff,TRUE,z,0,t,180,0.5513,7402,,,18S004
0,29,2,diff,TRUE,j,90,i,90,0.584524138,7402,,,18S004
0,30,3,same,TRUE,t,0,t,90,0.653125072,7402,,,18S004
0,31,3,same,TRUE,j,0,j,180,1.218490821,7402,,,18S004
0,32,3,same,TRUE,l,0,l,270,1.151230785,7402,,,18S004
0,33,3,same,TRUE,t,90,t,90,0.60214106,7402,,,18S004
0,34,2,diff,TRUE,z,0,o,0,0.384379947,7402,,,18S004
0,35,3,diff,FALSE,j,180,l,270,0.651278375,7402,,,18S004
0,36,3,same,TRUE,l,90,l,270,1.469659867,7402,,,18S004
0,37,3,same,TRUE,i,0,i,90,0.784617275,7402,,,18S004
0,38,3,same,TRUE,z,90,z,0,0.984663005,7402,,,18S004
0,39,2,diff,TRUE,t,180,o,0,0.869372068,7402,,,18S004
0,40,2,diff,TRUE,z,0,j,0,0.88472365,7402,,,18S004
0,41,3,same,TRUE,t,0,t,0,0.751464248,7402,,,18S004
0,42,3,same,TRUE,l,0,l,0,0.602929845,7402,,,18S004
0,43,3,same,TRUE,t,90,t,180,0.617855125,7402,,,18S004
0,44,2,diff,TRUE,s,0,l,270,0.584720332,7402,,,18S004
0,45,2,diff,TRUE,l,0,z,0,0.618165096,7402,,,18S004
0,46,3,diff,FALSE,j,270,l,270,0.634462272,7402,,,18S004
0,47,2,diff,TRUE,t,90,i,90,0.567558155,7402,,,18S004
0,48,2,diff,TRUE,i,0,l,270,0.367937268,7402,,,18S004
0,49,3,same,TRUE,t,180,t,90,0.668061293,7402,,,18S004
0,50,2,diff,TRUE,t,0,i,0,0.417401693,7402,,,18S004
0,51,2,diff,TRUE,j,180,t,270,0.584584309,7402,,,18S004
0,52,3,diff,FALSE,j,180,l,90,0.632666264,7402,,,18S004
0,53,3,same,TRUE,l,270,l,0,1.418123013,7402,,,18S004
0,54,3,same,TRUE,l,180,l,270,1.035037651,7402,,,18S004
0,55,3,same,TRUE,i,90,i,90,0.700517797,7402,,,18S004
0,56,2,diff,TRUE,t,270,s,0,0.601163011,7402,,,18S004
0,57,3,same,TRUE,l,0,l,90,1.488998769,7402,,,18S004
0,58,2,diff,TRUE,t,180,j,270,0.817974519,7402,,,18S004
0,59,3,same,TRUE,t,0,t,270,0.551469572,7402,,,18S004
1,0,2,same,FALSE,l,180,l,90,1.368531318,7402,,,18S004
1,1,3,same,TRUE,l,90,l,180,1.568991315,7402,,,18S004
1,2,3,same,TRUE,j,270,j,180,2.152892958,7402,,,18S004
1,3,2,diff,TRUE,t,270,l,90,0.868101917,7402,,,18S004
1,4,3,same,TRUE,o,0,o,0,0.60137525,7402,,,18S004
1,5,3,same,TRUE,s,90,s,90,0.600097076,7402,,,18S004
1,6,2,same,FALSE,j,180,j,0,1.618384993,7402,,,18S004
1,7,3,same,TRUE,t,90,t,270,1.318611053,7402,,,18S004
1,8,2,diff,TRUE,t,0,l,180,0.734153285,7402,,,18S004
1,9,2,same,FALSE,t,270,t,90,0.868240492,7402,,,18S004
1,10,2,diff,TRUE,l,0,i,0,0.784531942,7402,,,18S004
1,11,2,diff,TRUE,t,90,j,180,0.734435177,7402,,,18S004
1,12,2,same,FALSE,t,270,t,0,0.834178338,7402,,,18S004
1,13,3,same,TRUE,j,90,j,270,1.985470388,7402,,,18S004
1,14,3,same,TRUE,z,90,z,90,1.285099918,7402,,,18S004
1,15,3,same,TRUE,t,0,t,180,1.301604956,7402,,,18S004
1,16,2,diff,TRUE,l,270,i,90,0.602895566,7402,,,18S004
1,17,2,diff,TRUE,l,0,s,90,0.651086922,7402,,,18S004
1,18,3,same,TRUE,t,270,t,180,0.718019848,7402,,,18S004
1,19,2,diff,TRUE,l,90,t,0,0.768217263,7402,,,18S004
1,20,2,diff,TRUE,s,90,l,0,0.701189887,7402,,,18S004
1,21,3,same,TRUE,j,0,j,270,0.634722647,7402,,,18S004
1,22,3,same,TRUE,t,90,t,0,0.834992285,7402,,,18S004
1,23,2,diff,TRUE,t,90,l,180,0.584364777,7402,,,18S004
1,24,2,diff,TRUE,t,270,j,0,0.53477454,7402,,,18S004
1,25,2,diff,TRUE,j,270,o,0,0.501936224,7402,,,18S004
1,26,2,diff,TRUE,i,0,j,270,0.568021288,7402,,,18S004
1,27,2,diff,TRUE,z,90,t,180,0.467773056,7402,,,18S004
1,28,3,same,TRUE,i,0,i,0,0.584401609,7402,,,18S004
1,29,2,diff,TRUE,l,180,o,0,0.485872074,7402,,,18S004
1,30,3,same,TRUE,j,0,j,0,0.568098234,7402,,,18S004
1,31,2,same,FALSE,l,270,l,180,2.38578685,7402,,,18S004
1,32,2,diff,TRUE,o,0,l,90,1.084793813,7402,,,18S004
1,33,3,same,TRUE,l,90,l,0,1.53520704,7402,,,18S004
1,34,3,same,TRUE,l,90,l,90,0.834835841,7402,,,18S004
1,35,3,diff,FALSE,l,270,o,0,1.652007718,7402,,,18S004
1,36,3,same,TRUE,l,270,l,270,0.684518923,7402,,,18S004
1,37,3,same,TRUE,t,180,t,0,0.80118212,7402,,,18S004
1,38,2,same,FALSE,s,90,s,0,1.318510404,7402,,,18S004
1,39,2,same,FALSE,j,90,j,0,2.302613273,7402,,,18S004
1,40,2,diff,TRUE,l,270,j,180,4.169846543,7402,,,18S004
1,41,2,diff,TRUE,t,180,j,180,1.251781694,7402,,,18S004
1,42,3,same,TRUE,s,0,s,90,2.035716304,7402,,,18S004
1,43,2,diff,TRUE,j,0,z,0,0.667751686,7402,,,18S004
1,44,3,same,TRUE,t,270,t,270,0.684716211,7402,,,18S004
1,45,2,diff,TRUE,j,0,l,0,1.151721998,7402,,,18S004
1,46,2,diff,TRUE,t,90,l,270,0.718185044,7402,,,18S004
1,47,3,same,TRUE,z,0,z,0,0.734595267,7402,,,18S004
1,48,2,diff,TRUE,l,90,t,90,1.284927064,7402,,,18S004
1,49,2,diff,TRUE,z,0,j,90,0.600928527,7402,,,18S004
1,50,3,same,TRUE,j,270,j,270,0.584415101,7402,,,18S004
1,51,2,diff,TRUE,t,180,j,0,0.56787469,7402,,,18S004
1,52,3,same,TRUE,l,270,l,90,1.418923103,7402,,,18S004
1,53,3,same,TRUE,z,0,z,90,1.518753421,7402,,,18S004
1,54,2,diff,TRUE,t,90,j,90,0.751696908,7402,,,18S004
1,55,2,diff,TRUE,i,90,l,90,0.7512232,7402,,,18S004
1,56,2,diff,TRUE,l,270,t,180,0.918726362,7402,,,18S004
1,57,3,same,TRUE,j,90,j,180,1.351823887,7402,,,18S004
1,58,2,diff,TRUE,j,0,t,0,0.7847894,7402,,,18S004
1,59,3,same,TRUE,j,180,j,180,0.753234729,7402,,,18S004
1,60,3,same,TRUE,j,270,j,0,1.134997427,7402,,,18S004
2,0,2,diff,TRUE,o,0,t,180,0.636575544,7402,,,18S004
2,1,2,diff,TRUE,l,270,j,0,1.785435963,7402,,,18S004
2,2,2,diff,TRUE,z,90,l,0,0.851720503,7402,,,18S004
2,3,2,diff,TRUE,z,0,l,180,0.666427928,7402,,,18S004
2,4,3,same,TRUE,l,90,l,90,0.650652233,7402,,,18S004
2,5,2,diff,TRUE,t,180,l,180,0.584640833,7402,,,18S004
2,6,2,diff,TRUE,o,0,t,270,0.451260725,7402,,,18S004
2,7,2,diff,TRUE,t,0,j,90,0.634215389,7402,,,18S004
2,8,2,diff,TRUE,s,0,l,180,0.634946191,7402,,,18S004
2,9,2,diff,TRUE,s,90,l,180,0.617812094,7402,,,18S004
2,10,3,same,TRUE,z,0,z,90,1.935878328,7402,,,18S004
2,11,3,same,TRUE,j,90,j,270,1.718514342,7402,,,18S004
2,12,3,same,TRUE,t,270,t,0,0.900606194,7402,,,18S004
2,13,3,same,TRUE,t,270,t,90,0.701794877,7402,,,18S004
2,14,3,same,TRUE,j,180,j,90,1.551816739,7402,,,18S004
2,15,3,same,TRUE,l,270,l,270,0.817986918,7402,,,18S004
2,16,2,diff,TRUE,t,0,l,270,0.634594283,7402,,,18S004
2,17,3,same,TRUE,t,90,t,270,0.734250653,7402,,,18S004
2,18,2,diff,TRUE,l,90,o,0,0.700280761,7402,,,18S004
2,19,3,same,TRUE,l,180,l,90,1.584687876,7402,,,18S004
2,20,3,same,TRUE,j,180,j,270,2.252627733,7402,,,18S004
2,21,2,diff,TRUE,i,90,t,90,0.668234147,7402,,,18S004
2,22,2,diff,TRUE,l,270,i,0,0.600786305,7402,,,18S004
2,23,3,same,TRUE,t,180,t,270,0.701077204,7402,,,18S004
2,24,2,same,FALSE,i,90,i,0,0.568026758,7402,,,18S004
2,25,2,diff,TRUE,j,180,t,180,0.568309014,7402,,,18S004
2,26,3,same,TRUE,l,0,l,0,0.501282732,7402,,,18S004
2,27,2,diff,TRUE,s,90,t,180,0.568020559,7402,,,18S004
2,28,3,same,TRUE,l,180,l,0,1.50185709,7402,,,18S004
2,29,3,same,TRUE,t,90,t,90,0.668121463,7402,,,18S004
2,30,3,same,TRUE,j,90,j,90,0.634870339,7402,,,18S004
2,31,3,diff,FALSE,l,90,j,0,0.684819777,7402,,,18S004
2,32,2,same,FALSE,o,0,o,0,0.718769977,7402,,,18S004
2,33,2,diff,TRUE,i,90,l,0,0.717146094,7402,,,18S004
2,34,3,same,TRUE,s,0,s,90,1.83616434,7402,,,18S004
2,35,2,diff,TRUE,j,180,s,0,0.9009158,7402,,,18S004
2,36,2,diff,TRUE,j,90,t,180,0.601797175,7402,,,18S004
2,37,2,diff,TRUE,l,90,i,90,1.102061015,7402,,,18S004
2,38,3,same,TRUE,t,0,t,90,0.584435158,7402,,,18S004
2,39,2,diff,TRUE,l,0,j,90,1.352033573,7402,,,18S004
2,40,3,same,TRUE,z,90,z,90,0.818129869,7402,,,18S004
2,41,3,same,TRUE,z,90,z,0,2.486901542,7402,,,18S004
2,42,3,same,TRUE,j,270,j,0,1.085317846,7402,,,18S004
2,43,2,diff,TRUE,i,0,t,180,0.851827716,7402,,,18S004
2,44,2,diff,TRUE,i,90,s,0,0.585881081,7402,,,18S004
2,45,2,diff,TRUE,o,0,j,90,0.634515878,7402,,,18S004
2,46,2,diff,TRUE,j,90,l,180,1.4853433,7402,,,18S004
2,47,2,diff,TRUE,j,0,t,180,0.851728161,7402,,,18S004
2,48,3,same,TRUE,j,180,j,0,1.618642087,7402,,,18S004
2,49,3,same,TRUE,t,0,t,180,0.685096928,7402,,,18S004
2,50,3,same,TRUE,t,180,t,180,0.550650884,7402,,,18S004
2,51,3,same,TRUE,j,90,j,0,2.602860557,7402,,,18S004
2,52,3,same,TRUE,j,90,j,180,1.285083143,7402,,,18S004
2,53,3,same,TRUE,j,0,j,90,1.135034988,7402,,,18S004
2,54,3,same,TRUE,l,90,l,0,0.851413084,7402,,,18S004
2,55,2,diff,TRUE,t,90,z,90,0.886575088,7402,,,18S004
2,56,2,diff,TRUE,s,90,z,90,3.286676394,7402,,,18S004
2,57,2,diff,TRUE,i,0,l,90,1.702170489,7402,,,18S004
2,58,3,same,TRUE,z,0,z,0,0.951655482,7402,,,18S004
2,59,3,same,TRUE,j,0,j,180,2.536203688,7402,,,18S004
3,0,2,diff,TRUE,j,90,s,0,0.634600847,7402,,,18S004
3,1,2,diff,TRUE,s,90,i,0,0.417830182,7402,,,18S004
3,2,3,same,TRUE,l,90,l,270,1.351879317,7402,,,18S004
3,3,2,same,FALSE,i,0,i,90,0.384389793,7402,,,18S004
3,4,3,same,TRUE,i,90,i,90,0.484811244,7402,,,18S004
3,5,3,same,TRUE,j,270,j,90,1.752140714,7402,,,18S004
3,6,2,diff,TRUE,s,0,j,180,0.617911285,7402,,,18S004
3,7,2,diff,TRUE,t,90,j,0,0.501180989,7402,,,18S004
3,8,3,same,TRUE,j,270,j,180,1.41863793,7402,,,18S004
3,9,2,diff,TRUE,z,90,t,0,0.634549063,7402,,,18S004
3,10,3,same,TRUE,l,0,l,90,1.10160554,7402,,,18S004
3,11,2,diff,TRUE,j,180,t,90,0.634443673,7402,,,18S004
3,12,3,same,TRUE,j,180,j,180,0.601332218,7402,,,18S004
3,13,3,same,TRUE,l,0,l,180,1.201276132,7402,,,18S004
3,14,3,same,TRUE,l,270,l,180,1.251724806,7402,,,18S004
3,15,3,same,TRUE,t,90,t,0,1.620054095,7402,,,18S004
3,16,3,same,TRUE,s,0,s,0,0.884802784,7402,,,18S004
3,17,3,diff,FALSE,t,270,i,90,0.451279323,7402,,,18S004
3,18,3,same,TRUE,t,270,t,180,0.634713166,7402,,,18S004
3,19,3,same,TRUE,t,90,t,180,1.135045564,7402,,,18S004
3,20,2,diff,TRUE,i,90,t,270,0.934867094,7402,,,18S004
3,21,2,diff,TRUE,o,0,l,0,0.618126441,7402,,,18S004
3,22,3,diff,FALSE,z,90,s,0,1.051710438,7402,,,18S004
3,23,3,same,TRUE,l,0,l,270,1.935632539,7402,,,18S004
3,24,2,diff,TRUE,i,90,l,180,1.467536384,7402,,,18S004
3,25,2,diff,TRUE,s,90,j,0,0.701451721,7402,,,18S004
3,26,2,diff,TRUE,i,0,s,90,0.568330894,7402,,,18S004
3,27,2,diff,TRUE,t,270,o,0,0.517015396,7402,,,18S004
3,28,3,same,TRUE,t,180,t,90,1.101665346,7402,,,18S004
3,29,2,diff,TRUE,i,90,j,0,0.71844469,7402,,,18S004
3,30,2,diff,TRUE,s,0,j,90,0.650110696,7402,,,18S004
3,31,3,same,TRUE,s,90,s,0,1.418632095,7402,,,18S004
3,32,2,diff,TRUE,j,90,z,90,0.485015096,7402,,,18S004
3,33,2,diff,TRUE,j,270,t,270,0.483633355,7402,,,18S004
3,34,2,diff,TRUE,s,0,j,0,0.55131094,7402,,,18S004
3,35,3,same,TRUE,l,90,l,180,1.485218218,7402,,,18S004
3,36,2,diff,TRUE,j,180,l,0,1.700707791,7402,,,18S004
3,37,3,same,TRUE,j,0,j,270,1.485355699,7402,,,18S004
3,38,3,same,TRUE,l,270,l,0,1.084990371,7402,,,18S004
3,39,3,same,TRUE,l,180,l,180,0.851429859,7402,,,18S004
3,40,2,diff,TRUE,l,90,s,0,0.684832906,7402,,,18S004
3,41,2,diff,TRUE,z,0,j,270,0.718074548,7402,,,18S004
3,42,2,diff,TRUE,i,90,z,90,0.534626848,7402,,,18S004
3,43,2,diff,TRUE,z,90,t,270,0.684834,7402,,,18S004
3,44,3,same,TRUE,l,270,l,90,2.352665914,7402,,,18S004
3,45,3,same,TRUE,t,270,t,270,0.884952299,7402,,,18S004
3,46,3,same,TRUE,j,270,j,270,0.751549581,7402,,,18S004
3,47,3,same,TRUE,t,0,t,270,0.951439961,7402,,,18S004
3,48,2,diff,TRUE,z,90,s,90,1.568834506,7402,,,18S004
3,49,3,same,TRUE,t,0,t,0,0.685108233,7402,,,18S004
3,50,2,diff,TRUE,o,0,s,90,0.619545014,7402,,,18S004
3,51,2,diff,TRUE,t,90,l,90,0.667981429,7402,,,18S004
3,52,2,diff,TRUE,j,270,l,90,1.218835436,7402,,,18S004
3,53,3,same,TRUE,l,180,l,270,1.102544934,7402,,,18S004
3,54,3,same,TRUE,j,0,j,0,0.951601875,7402,,,18S004
3,55,3,diff,FALSE,z,0,s,90,1.068319407,7402,,,18S004
3,56,3,same,TRUE,i,0,i,0,0.751886902,7402,,,18S004
3,57,3,same,TRUE,t,180,t,0,1.001602732,7402,,,18S004
3,58,2,diff,TRUE,i,90,s,90,0.684951059,7402,,,18S004
3,59,2,diff,TRUE,i,90,j,180,0.702285361,7402,,,18S004
3,60,3,same,TRUE,s,90,s,90,0.734912167,7402,,,18S004
4,0,3,same,TRUE,j,270,j,90,1.45198715,7402,,,18S004
4,1,3,same,TRUE,t,90,t,90,0.616758193,7402,,,18S004
4,2,3,same,TRUE,l,180,l,0,1.301751919,7402,,,18S004
4,3,3,same,TRUE,t,270,t,90,0.701760598,7402,,,18S004
4,4,3,same,TRUE,l,0,l,90,1.45077717,7402,,,18S004
4,5,3,same,TRUE,t,270,t,270,0.551339749,7402,,,18S004
4,6,3,same,TRUE,s,0,s,0,0.768224191,7402,,,18S004
4,7,3,same,TRUE,z,90,z,0,1.751411006,7402,,,18S004
4,8,2,diff,TRUE,l,270,s,90,0.834881061,7402,,,18S004
4,9,2,diff,TRUE,l,180,i,90,0.550445939,7402,,,18S004
4,10,3,same,TRUE,z,0,z,90,1.718825772,7402,,,18S004
4,11,3,same,TRUE,z,0,z,0,0.634561462,7402,,,18S004
4,12,2,diff,TRUE,j,0,t,90,0.768116249,7402,,,18S004
4,13,3,same,TRUE,l,180,l,180,0.651438466,7402,,,18S004
4,14,3,same,TRUE,l,90,l,270,1.435225748,7402,,,18S004
4,15,3,same,TRUE,j,0,j,180,1.118237484,7402,,,18S004
4,16,2,diff,TRUE,j,0,z,90,0.784849936,7402,,,18S004
4,17,3,same,TRUE,j,270,j,180,1.30191128,7402,,,18S004
4,18,2,diff,TRUE,z,0,t,0,0.651577405,7402,,,18S004
4,19,2,diff,TRUE,t,0,j,0,0.851528321,7402,,,18S004
4,20,2,diff,TRUE,z,90,o,0,0.701626034,7402,,,18S004
4,21,2,diff,TRUE,j,180,s,90,0.66789719,7402,,,18S004
4,22,2,diff,TRUE,t,90,i,0,0.584659796,7402,,,18S004
4,23,3,same,TRUE,l,0,l,180,1.718778729,7402,,,18S004
4,24,2,diff,TRUE,l,270,t,0,0.684792062,7402,,,18S004
4,25,3,same,TRUE,j,180,j,0,1.318516239,7402,,,18S004
4,26,2,diff,TRUE,j,90,z,0,0.634540676,7402,,,18S004
4,27,2,diff,TRUE,l,0,j,270,2.83674745,7402,,,18S004
4,28,2,diff,TRUE,l,180,s,90,0.751360316,7402,,,18S004
4,29,3,same,TRUE,j,180,j,90,2.252531459,7402,,,18S004
4,30,3,same,TRUE,t,180,t,0,0.934924712,7402,,,18S004
4,31,3,same,TRUE,l,180,l,270,0.952190455,7402,,,18S004
4,32,3,same,TRUE,t,270,t,0,0.701297465,7402,,,18S004
4,33,2,diff,TRUE,s,90,l,270,1.8357085,7402,,,18S004
4,34,2,diff,TRUE,l,90,s,90,0.718301739,7402,,,18S004
4,35,2,diff,TRUE,j,180,t,0,0.535848863,7402,,,18S004
4,36,2,diff,TRUE,j,270,s,90,0.433996805,7402,,,18S004
4,37,2,diff,TRUE,j,0,t,270,0.601407341,7402,,,18S004
4,38,3,same,TRUE,t,0,t,90,0.951550456,7402,,,18S004
4,39,3,same,TRUE,s,90,s,90,1.085113265,7402,,,18S004
4,40,3,same,TRUE,t,0,t,270,0.584758257,7402,,,18S004
4,41,2,diff,TRUE,z,0,j,180,0.60119182,7402,,,18S004
4,42,2,diff,TRUE,z,90,l,90,0.534669879,7402,,,18S004
4,43,2,diff,TRUE,s,0,i,0,0.451190708,7402,,,18S004
4,44,2,diff,TRUE,j,90,l,0,2.188559667,7402,,,18S004
4,45,3,same,TRUE,j,0,j,270,1.26843953,7402,,,18S004
4,46,3,same,TRUE,j,270,j,270,0.651377201,7402,,,18S004
4,47,3,same,TRUE,l,90,l,0,1.052788042,7402,,,18S004
4,48,2,diff,TRUE,z,0,s,0,0.968280861,7402,,,18S004
4,49,3,same,TRUE,i,0,i,90,1.001551313,7402,,,18S004
4,50,3,same,TRUE,t,90,t,270,0.669473666,7402,,,18S004
4,51,2,diff,TRUE,j,90,i,0,1.318674506,7402,,,18S004
4,52,2,diff,TRUE,i,0,j,180,1.302026152,7402,,,18S004
4,53,3,same,TRUE,l,270,l,270,0.650644575,7402,,,18S004
4,54,2,diff,TRUE,t,0,z,0,0.751432157,7402,,,18S004
4,55,2,diff,TRUE,l,90,j,90,2.586069981,7402,,,18S004
4,56,2,diff,TRUE,j,90,o,0,0.801311213,7402,,,18S004
4,57,2,diff,TRUE,o,0,j,0,0.584580662,7402,,,18S004
4,58,2,diff,TRUE,l,180,j,0,1.904210243,7402,,,18S004
4,59,3,same,TRUE,s,0,s,90,1.80217038,7402,,,18S004
5,0,3,same,TRUE,j,90,j,270,1.269952553,7402,,,18S004
5,1,2,diff,TRUE,l,90,t,270,0.751525148,7402,,,18S004
5,2,2,diff,TRUE,z,0,t,90,0.584646303,7402,,,18S004
5,3,2,diff,TRUE,j,180,i,0,0.417717863,7402,,,18S004
5,4,2,diff,TRUE,i,90,j,270,0.401321862,7402,,,18S004
5,5,3,diff,FALSE,l,90,j,180,1.468672336,7402,,,18S004
5,6,3,same,TRUE,i,0,i,0,1.05150768,7402,,,18S004
5,7,3,same,TRUE,i,90,i,90,0.61811076,7402,,,18S004
5,8,2,diff,TRUE,j,0,l,180,1.885454817,7402,,,18S004
5,9,3,same,TRUE,j,0,j,90,1.552428294,7402,,,18S004
5,10,2,diff,TRUE,t,0,s,0,1.285239223,7402,,,18S004
5,11,3,same,TRUE,l,180,l,90,1.368512355,7402,,,18S004
5,12,2,diff,TRUE,j,180,z,90,0.734732384,7402,,,18S004
5,13,2,diff,TRUE,s,90,l,90,0.617964527,7402,,,18S004
5,14,2,diff,TRUE,j,270,s,0,0.468298183,7402,,,18S004
5,15,2,same,FALSE,l,270,l,180,2.802493479,7402,,,18S004
5,16,3,same,TRUE,l,0,l,0,0.634717542,7402,,,18S004
5,17,3,same,TRUE,j,180,j,180,0.567926838,7402,,,18S004
5,18,3,same,TRUE,j,90,j,180,0.968194434,7402,,,18S004
5,19,2,diff,TRUE,t,90,s,90,0.784811645,7402,,,18S004
5,20,2,diff,TRUE,j,0,i,0,0.617880288,7402,,,18S004
5,21,2,diff,TRUE,t,180,l,90,0.968082845,7402,,,18S004
5,22,2,same,FALSE,t,180,t,180,0.534034986,7402,,,18S004
5,23,3,same,TRUE,t,0,t,0,0.517949685,7402,,,18S004
5,24,2,diff,TRUE,j,0,i,90,0.551039989,7402,,,18S004
5,25,2,diff,TRUE,l,90,z,0,0.634756197,7402,,,18S004
5,26,3,same,TRUE,t,180,t,90,0.769058925,7402,,,18S004
5,27,2,diff,TRUE,z,90,t,90,0.685208517,7402,,,18S004
5,28,3,same,TRUE,j,270,j,0,0.868246692,7402,,,18S004
5,29,2,diff,TRUE,t,270,j,90,1.085087738,7402,,,18S004
5,30,3,same,TRUE,j,90,j,0,1.518235952,7402,,,18S004
5,31,2,diff,TRUE,z,0,l,270,0.701419266,7402,,,18S004
5,32,3,same,TRUE,t,90,t,0,0.81856237,7402,,,18S004
5,33,3,same,TRUE,o,0,o,0,0.751364692,7402,,,18S004
5,34,3,same,TRUE,l,270,l,90,1.552122699,7402,,,18S004
5,35,3,diff,FALSE,j,270,l,180,1.53534598,7402,,,18S004
5,36,3,same,TRUE,i,90,i,0,0.734755358,7402,,,18S004
5,37,2,diff,TRUE,j,90,l,270,1.33513943,7402,,,18S004
5,38,2,diff,TRUE,s,90,i,90,0.667949703,7402,,,18S004
5,39,3,same,TRUE,t,180,t,270,0.801479692,7402,,,18S004
5,40,2,diff,TRUE,i,90,t,180,0.518090083,7402,,,18S004
5,41,3,same,TRUE,z,90,z,90,0.651230603,7402,,,18S004
5,42,2,diff,TRUE,z,90,j,180,0.634560733,7402,,,18S004
5,43,2,diff,TRUE,z,0,t,270,0.667911048,7402,,,18S004
5,44,2,diff,TRUE,s,0,i,90,0.667990546,7402,,,18S004
5,45,3,same,TRUE,t,90,t,180,0.85171175,7402,,,18S004
5,46,3,same,TRUE,l,0,l,270,1.185130295,7402,,,18S004
5,47,3,same,TRUE,j,0,j,0,0.651410386,7402,,,18S004
5,48,3,same,TRUE,t,0,t,180,0.668093019,7402,,,18S004
5,49,2,diff,TRUE,l,180,j,90,1.468664314,7402,,,18S004
5,50,2,diff,TRUE,z,90,j,90,0.634646066,7402,,,18S004
5,51,3,same,TRUE,t,270,t,180,0.6347252,7402,,,18S004
5,52,3,same,TRUE,j,180,j,270,1.435305611,7402,,,18S004
5,53,3,same,TRUE,l,90,l,90,0.784014473,7402,,,18S004
5,54,2,diff,TRUE,o,0,j,270,0.868991351,7402,,,18S004
5,55,3,same,TRUE,l,90,l,180,1.051505492,7402,,,18S004
5,56,3,same,TRUE,j,90,j,90,0.817988376,7402,,,18S004
5,57,3,same,TRUE,l,270,l,0,1.268393946,7402,,,18S004
5,58,3,same,TRUE,s,90,s,0,1.052072557,7402,,,18S004
5,59,2,diff,TRUE,t,0,o,0,0.634700402,7402,,,18S004
5,60,2,diff,TRUE,j,180,l,180,0.784891144,7402,,,18S004
6,0,3,same,TRUE,j,270,j,180,2.836574231,7402,,,18S004
6,1,3,same,TRUE,l,0,l,270,1.269002948,7402,,,18S004
6,2,3,same,TRUE,z,0,z,90,2.435983536,7402,,,18S004
6,3,2,diff,TRUE,j,270,t,180,0.818206085,7402,,,18S004
6,4,2,diff,TRUE,j,180,o,0,0.684741008,7402,,,18S004
6,5,2,diff,TRUE,s,0,t,90,0.718154047,7402,,,18S004
6,6,2,same,FALSE,t,90,t,0,0.51834973,7402,,,18S004
6,7,2,diff,TRUE,t,90,l,0,0.834933209,7402,,,18S004
6,8,3,same,TRUE,j,0,j,90,0.968409955,7402,,,18S004
6,9,2,diff,TRUE,z,0,l,0,0.668437269,7402,,,18S004
6,10,2,diff,TRUE,j,270,z,90,0.751194755,7402,,,18S004
6,11,2,diff,TRUE,t,270,l,180,0.6345972,7402,,,18S004
6,12,3,same,TRUE,l,90,l,90,0.701710274,7402,,,18S004
6,13,3,same,TRUE,t,180,t,0,0.766714815,7402,,,18S004
6,14,3,same,TRUE,z,90,z,0,1.935363047,7402,,,18S004
6,15,3,same,TRUE,t,270,t,180,0.701415619,7402,,,18S004
6,16,3,same,TRUE,j,90,j,90,0.601294657,7402,,,18S004
6,17,3,same,TRUE,j,0,j,180,0.918205611,7402,,,18S004
6,18,3,same,TRUE,l,180,l,90,1.135075467,7402,,,18S004
6,19,2,diff,TRUE,l,180,s,0,0.600938008,7402,,,18S004
6,20,2,diff,TRUE,z,0,i,0,0.618000994,7402,,,18S004
6,21,2,diff,TRUE,o,0,l,270,0.701834262,7402,,,18S004
6,22,3,same,TRUE,l,180,l,0,2.318366359,7402,,,18S004
6,23,3,same,TRUE,j,270,j,0,1.084920719,7402,,,18S004
6,24,2,diff,TRUE,j,180,i,90,0.684577635,7402,,,18S004
6,25,3,same,TRUE,s,90,s,90,0.868159535,7402,,,18S004
6,26,2,diff,TRUE,i,0,t,270,0.717991403,7402,,,18S004
6,27,3,same,TRUE,z,90,z,90,0.718142013,7402,,,18S004
6,28,2,diff,TRUE,j,90,l,90,2.653047761,7402,,,18S004
6,29,2,diff,TRUE,i,0,l,0,0.585109071,7402,,,18S004
6,30,2,diff,TRUE,j,180,z,0,1.468864883,7402,,,18S004
6,31,3,same,TRUE,t,180,t,270,0.63459173,7402,,,18S004
6,32,3,same,TRUE,s,90,s,0,0.885409597,7402,,,18S004
6,33,2,diff,TRUE,s,0,t,180,0.56660855,7402,,,18S004
6,34,2,diff,TRUE,j,270,t,90,0.601390931,7402,,,18S004
6,35,2,diff,TRUE,l,0,i,90,0.601210783,7402,,,18S004
6,36,2,diff,TRUE,z,90,i,0,0.534564124,7402,,,18S004
6,37,2,diff,TRUE,s,90,j,90,0.701345967,7402,,,18S004
6,38,3,same,TRUE,t,0,t,0,0.668033213,7402,,,18S004
6,39,2,diff,TRUE,l,270,j,270,1.986386443,7402,,,18S004
6,40,2,diff,TRUE,j,0,o,0,0.768169855,7402,,,18S004
6,41,3,same,TRUE,t,0,t,180,0.701357636,7402,,,18S004
6,42,2,diff,TRUE,s,0,t,270,1.169015091,7402,,,18S004
6,43,3,same,TRUE,z,0,z,0,0.651482226,7402,,,18S004
6,44,3,same,TRUE,t,180,t,180,0.634685815,7402,,,18S004
6,45,2,diff,TRUE,o,0,z,90,0.634516243,7402,,,18S004
6,46,3,same,TRUE,j,90,j,270,1.83578727,7402,,,18S004
6,47,2,diff,TRUE,t,270,z,90,0.834657152,7402,,,18S004
6,48,3,same,TRUE,j,0,j,0,0.633294228,7402,,,18S004
6,49,2,diff,TRUE,t,180,z,90,0.784795964,7402,,,18S004
6,50,2,diff,TRUE,z,90,j,270,0.701507881,7402,,,18S004
6,51,2,diff,TRUE,l,0,j,0,0.885459557,7402,,,18S004
6,52,2,diff,TRUE,z,90,i,90,0.818249846,7402,,,18S004
6,53,3,same,TRUE,j,90,j,0,0.501206151,7402,,,18S004
6,54,3,same,TRUE,t,0,t,270,0.634721188,7402,,,18S004
6,55,2,diff,TRUE,l,0,s,0,0.668137144,7402,,,18S004
6,56,3,same,TRUE,i,0,i,90,0.701684746,7402,,,18S004
6,57,3,same,TRUE,s,0,s,0,0.718129614,7402,,,18S004
6,58,2,diff,TRUE,l,180,t,90,0.751514572,7402,,,18S004
6,59,3,same,TRUE,t,90,t,180,0.818622176,7402,,,18S004
7,0,2,diff,TRUE,l,180,t,270,0.968200634,7402,,,18S004
7,1,3,same,TRUE,j,180,j,270,1.38476504,7402,,,18S004
7,2,2,same,FALSE,o,0,o,0,0.534615543,7402,,,18S004
7,3,3,same,TRUE,t,270,t,90,1.15250823,7402,,,18S004
7,4,3,same,TRUE,j,180,j,90,1.484332066,7402,,,18S004
7,5,3,same,TRUE,l,90,l,0,1.08498563,7402,,,18S004
7,6,3,same,TRUE,j,0,j,270,1.268571906,7402,,,18S004
7,7,3,same,TRUE,t,90,t,90,0.618054236,7402,,,18S004
7,8,3,same,TRUE,l,270,l,270,0.634776619,7402,,,18S004
7,9,2,diff,TRUE,s,0,o,0,0.534617002,7402,,,18S004
7,10,3,same,TRUE,l,0,l,90,1.285055793,7402,,,18S004
7,11,3,same,TRUE,l,180,l,270,0.701450263,7402,,,18S004
7,12,2,diff,TRUE,j,90,t,270,0.868491022,7402,,,18S004
7,13,2,diff,TRUE,l,90,j,270,1.018078232,7402,,,18S004
7,14,3,same,TRUE,t,90,t,270,0.767700523,7402,,,18S004
7,15,3,same,TRUE,t,270,t,0,0.75155104,7402,,,18S004
7,16,2,diff,TRUE,o,0,t,90,0.668006227,7402,,,18S004
7,17,2,diff,TRUE,t,0,l,0,0.651488426,7402,,,18S004
7,18,3,same,TRUE,j,180,j,0,0.78493928,7402,,,18S004
7,19,3,same,TRUE,j,90,j,180,0.734874241,7402,,,18S004
7,20,3,same,TRUE,t,270,t,270,0.651326511,7402,,,18S004
7,21,2,diff,TRUE,s,90,t,270,0.61792733,7402,,,18S004
7,22,2,diff,TRUE,i,0,z,0,0.568358245,7402,,,18S004
7,23,2,diff,TRUE,s,0,l,90,0.700965249,7402,,,18S004
7,24,2,diff,TRUE,t,180,i,0,0.534614449,7402,,,18S004
7,25,2,diff,TRUE,l,270,s,0,0.751834754,7402,,,18S004
7,26,2,same,FALSE,l,90,l,270,0.568871702,7402,,,18S004
7,27,3,same,TRUE,l,0,l,180,0.517843201,7402,,,18S004
7,28,2,diff,TRUE,l,0,t,270,0.701266468,7402,,,18S004
7,29,2,diff,TRUE,j,0,s,0,0.568033322,7402,,,18S004
7,30,2,same,FALSE,s,0,s,90,0.63461361,7402,,,18S004
7,31,2,diff,TRUE,o,0,j,180,0.518044135,7402,,,18S004
7,32,3,same,TRUE,l,270,l,0,0.901384768,7402,,,18S004
7,33,2,same,FALSE,i,90,i,0,0.634672687,7402,,,18S004
7,34,2,same,FALSE,j,270,j,90,4.220394772,7402,,,18S004
7,35,2,diff,TRUE,i,90,l,270,1.235105261,7402,,,18S004
7,36,3,same,TRUE,i,90,i,90,0.618063353,7402,,,18S004
7,37,3,same,TRUE,l,180,l,180,0.651278739,7402,,,18S004
7,38,2,diff,TRUE,l,270,t,270,0.617973279,7402,,,18S004
7,39,3,same,TRUE,l,270,l,90,2.085703304,7402,,,18S004
7,40,3,same,TRUE,j,270,j,270,0.717999061,7402,,,18S004
7,41,2,diff,TRUE,s,90,j,180,1.168380198,7402,,,18S004
7,42,3,same,TRUE,t,0,t,90,0.85156807,7402,,,18S004
7,43,3,same,TRUE,i,0,i,0,0.701482718,7402,,,18S004
7,44,2,diff,TRUE,l,180,z,0,0.684716211,7402,,,18S004
7,45,2,diff,TRUE,j,90,s,90,1.018315997,7402,,,18S004
7,46,2,diff,TRUE,i,90,j,90,0.75130124,7402,,,18S004
7,47,2,diff,TRUE,o,0,t,0,1.018235405,7402,,,18S004
7,48,3,same,TRUE,t,180,t,90,0.634692744,7402,,,18S004
7,49,3,same,TRUE,l,90,l,180,0.717844441,7402,,,18S004
7,50,2,diff,TRUE,l,0,z,90,0.551270826,7402,,,18S004
7,51,2,diff,TRUE,i,0,o,0,0.767994084,7402,,,18S004
7,52,2,diff,TRUE,j,270,i,0,0.734610948,7402,,,18S004
7,53,2,diff,TRUE,z,90,j,0,0.984978811,7402,,,18S004
7,54,2,diff,TRUE,s,90,o,0,0.700988588,7402,,,18S004
7,55,3,same,TRUE,l,0,l,0,1.88557844,7402,,,18S004
7,56,2,diff,TRUE,i,0,l,180,1.268352738,7402,,,18S004
7,57,3,same,TRUE,l,270,l,180,2.001986731,7402,,,18S004
7,58,2,diff,TRUE,j,90,t,90,0.73422622,7402,,,18S004
7,59,3,same,TRUE,j,180,j,180,0.734507017,7402,,,18S004
7,60,2,diff,TRUE,i,90,z,0,0.484957477,7402,,,18S004
8,0,2,diff,TRUE,l,180,z,90,0.467725649,7402,,,18S004
8,1,3,same,TRUE,j,270,j,270,0.685038216,7402,,,18S004
8,2,3,same,TRUE,t,270,t,180,0.734367348,7402,,,18S004
8,3,3,same,TRUE,l,270,l,270,0.584566075,7402,,,18S004
8,4,2,diff,TRUE,l,0,t,90,0.668321303,7402,,,18S004
8,5,3,same,TRUE,t,180,t,90,0.632528418,7402,,,18S004
8,6,3,same,TRUE,i,0,i,0,0.651381212,7402,,,18S004
8,7,2,diff,TRUE,t,270,j,180,0.634603764,7402,,,18S004
8,8,2,diff,TRUE,s,90,j,270,0.584467614,7402,,,18S004
8,9,2,diff,TRUE,t,180,i,90,0.567834576,7402,,,18S004
8,10,2,diff,TRUE,t,270,i,0,0.634860493,7402,,,18S004
8,11,3,same,TRUE,t,270,t,270,0.701355083,7402,,,18S004
8,12,3,same,TRUE,t,0,t,90,0.668003674,7402,,,18S004
8,13,3,same,TRUE,j,180,j,0,1.50201864,7402,,,18S004
8,14,3,diff,FALSE,l,270,j,90,2.236218968,7402,,,18S004
8,15,3,same,TRUE,j,180,j,90,1.018413365,7402,,,18S004
8,16,3,same,TRUE,l,270,l,180,1.435657519,7402,,,18S004
8,17,3,same,TRUE,t,270,t,90,1.368711466,7402,,,18S004
8,18,3,same,TRUE,t,90,t,90,0.617983855,7402,,,18S004
8,19,3,same,TRUE,l,180,l,270,0.768098744,7402,,,18S004
8,20,2,diff,TRUE,t,90,o,0,0.667381909,7402,,,18S004
8,21,2,diff,TRUE,t,180,l,0,0.751392772,7402,,,18S004
8,22,3,same,TRUE,l,180,l,0,1.335178086,7402,,,18S004
8,23,2,diff,TRUE,i,90,o,0,0.634751092,7402,,,18S004
8,24,3,same,TRUE,l,90,l,180,1.201729783,7402,,,18S004
8,25,3,same,TRUE,s,0,s,90,1.668477748,7402,,,18S004
8,26,2,diff,TRUE,z,0,l,90,0.751512384,7402,,,18S004
8,27,2,diff,TRUE,j,270,i,90,2.785873204,7402,,,18S004
8,28,2,diff,TRUE,t,0,l,90,0.667349818,7402,,,18S004
8,29,2,diff,TRUE,l,180,j,270,0.534531669,7402,,,18S004
8,30,3,same,TRUE,j,0,j,180,1.085444022,7402,,,18S004
8,31,2,diff,TRUE,t,90,s,0,0.783839066,7402,,,18S004
8,32,3,same,TRUE,t,270,t,0,0.851492583,7402,,,18S004
8,33,2,diff,TRUE,i,90,t,0,0.484867039,7402,,,18S004
8,34,3,same,TRUE,t,0,t,270,0.835461618,7402,,,18S004
8,35,2,diff,TRUE,z,90,l,180,0.684749396,7402,,,18S004
8,36,2,diff,TRUE,z,0,i,90,1.035042391,7402,,,18S004
8,37,2,diff,TRUE,t,270,j,270,0.985223505,7402,,,18S004
8,38,3,same,TRUE,i,90,i,0,0.734760464,7402,,,18S004
8,39,2,diff,TRUE,l,0,o,0,0.60125272,7402,,,18S004
8,40,3,same,TRUE,l,0,l,180,1.152446965,7402,,,18S004
8,41,3,same,TRUE,j,180,j,270,1.218357716,7402,,,18S004
8,42,2,diff,TRUE,o,0,i,0,0.551301823,7402,,,18S004
8,43,3,same,TRUE,j,270,j,90,2.183572053,7402,,,18S004
8,44,3,same,TRUE,t,0,t,180,0.701311323,7402,,,18S004
8,45,2,diff,TRUE,l,180,i,0,0.668034307,7402,,,18S004
8,46,2,diff,TRUE,l,180,t,180,0.801746996,7402,,,18S004
8,47,3,same,TRUE,l,90,l,0,0.934938934,7402,,,18S004
8,48,3,same,TRUE,j,90,j,270,1.002091757,7402,,,18S004
8,49,3,same,TRUE,t,180,t,180,0.851688411,7402,,,18S004
8,50,3,same,TRUE,t,90,t,180,0.684750855,7402,,,18S004
8,51,3,same,TRUE,t,90,t,0,0.701878752,7402,,,18S004
8,52,2,same,FALSE,s,90,s,90,0.58427215,7402,,,18S004
8,53,3,same,TRUE,l,180,l,180,0.534595851,7402,,,18S004
8,54,2,diff,TRUE,t,0,i,90,0.601381084,7402,,,18S004
8,55,3,same,TRUE,j,270,j,0,0.902674246,7402,,,18S004
8,56,2,diff,TRUE,t,90,j,270,0.801368467,7402,,,18S004
8,57,3,same,TRUE,t,0,t,0,0.718076372,7402,,,18S004
8,58,2,diff,TRUE,t,270,l,270,0.786177705,7402,,,18S004
8,59,2,diff,TRUE,l,270,t,90,0.818036878,7402,,,18S004
9,0,2,diff,TRUE,j,0,l,90,2.152629665,7402,,,18S004
9,1,3,same,TRUE,l,90,l,270,1.251517307,7402,,,18S004
9,2,2,diff,TRUE,i,0,j,0,0.601343523,7402,,,18S004
9,3,3,same,TRUE,i,0,i,90,0.651560266,7402,,,18S004
9,4,3,diff,FALSE,j,0,l,270,0.834856628,7402,,,18S004
9,5,2,diff,TRUE,l,90,i,0,0.618003182,7402,,,18S004
9,6,2,diff,TRUE,o,0,l,180,0.551664671,7402,,,18S004
9,7,2,diff,TRUE,j,270,l,0,1.518564521,7402,,,18S004
9,8,3,same,TRUE,t,180,t,270,0.718212759,7402,,,18S004
9,9,3,same,TRUE,j,90,j,0,1.401748892,7402,,,18S004
9,10,3,same,TRUE,l,90,l,90,0.684634524,7402,,,18S004
9,11,2,diff,TRUE,t,0,j,180,0.818486153,7402,,,18S004
9,12,3,same,TRUE,j,0,j,270,0.901477029,7402,,,18S004
9,13,3,same,TRUE,t,180,t,0,0.684685578,7402,,,18S004
9,14,3,same,TRUE,j,0,j,0,0.701285796,7402,,,18S004
9,15,2,diff,TRUE,l,90,t,180,0.684646194,7402,,,18S004
9,16,2,diff,TRUE,s,0,z,0,0.918310637,7402,,,18S004
9,17,2,diff,TRUE,s,0,t,0,0.884978555,7402,,,18S004
9,18,2,diff,TRUE,t,0,z,90,0.735103255,7402,,,18S004
9,19,2,same,FALSE,o,0,o,0,0.567955647,7402,,,18S004
9,20,2,diff,TRUE,l,180,j,180,0.951525658,7402,,,18S004
9,21,2,diff,TRUE,l,90,z,90,0.718389989,7402,,,18S004
9,22,3,same,TRUE,l,0,l,270,1.285265114,7402,,,18S004
9,23,3,same,TRUE,s,90,s,0,1.501971962,7402,,,18S004
9,24,2,diff,TRUE,t,270,z,0,0.900983629,7402,,,18S004
9,25,2,diff,TRUE,z,90,l,270,0.751348282,7402,,,18S004
9,26,2,diff,TRUE,j,270,t,0,0.567954918,7402,,,18S004
9,27,2,diff,TRUE,j,0,s,90,0.551206279,7402,,,18S004
9,28,2,diff,TRUE,l,0,j,180,1.985684086,7402,,,18S004
9,29,2,diff,TRUE,o,0,i,90,0.568061767,7402,,,18S004
9,30,3,same,TRUE,z,0,z,0,0.684287357,7402,,,18S004
9,31,3,same,TRUE,l,0,l,90,0.868197096,7402,,,18S004
9,32,2,diff,TRUE,l,270,z,0,0.834756708,7402,,,18S004
9,33,2,diff,TRUE,j,270,z,0,0.701584097,7402,,,18S004
9,34,3,same,TRUE,j,270,j,180,1.752158583,7402,,,18S004
9,35,3,same,TRUE,z,0,z,90,1.118257541,7402,,,18S004
9,36,3,same,TRUE,z,90,z,0,1.086098973,7402,,,18S004
9,37,3,same,TRUE,j,180,j,180,0.600899718,7402,,,18S004
9,38,2,diff,TRUE,i,0,t,0,0.634723741,7402,,,18S004
9,39,3,same,TRUE,l,180,l,90,1.103290323,7402,,,18S004
9,40,3,same,TRUE,j,90,j,180,0.95152347,7402,,,18S004
9,41,2,diff,TRUE,j,90,t,0,0.668033578,7402,,,18S004
9,42,2,diff,TRUE,t,0,s,90,0.701215779,7402,,,18S004
9,43,3,same,TRUE,s,0,s,0,0.785009662,7402,,,18S004
9,44,3,same,TRUE,j,0,j,90,0.934870011,7402,,,18S004
9,45,2,diff,TRUE,l,180,t,0,0.718097523,7402,,,18S004
9,46,2,diff,TRUE,i,0,j,90,0.751375268,7402,,,18S004
9,47,3,same,TRUE,j,90,j,90,0.684652029,7402,,,18S004
9,48,3,same,TRUE,l,270,l,0,1.318418507,7402,,,18S004
9,49,3,same,TRUE,l,0,l,0,0.651286762,7402,,,18S004
9,50,2,diff,TRUE,o,0,s,0,0.684814672,7402,,,18S004
9,51,3,diff,FALSE,s,90,z,0,1.151646146,7402,,,18S004
9,52,2,diff,TRUE,s,0,z,90,1.668824915,7402,,,18S004
9,53,2,diff,TRUE,o,0,z,0,0.801705059,7402,,,18S004
9,54,2,diff,TRUE,t,180,l,270,0.801575236,7402,,,18S004
9,55,3,same,TRUE,z,90,z,90,0.684773099,7402,,,18S004
9,56,3,same,TRUE,t,90,t,270,1.268963563,7402,,,18S004
9,57,2,diff,TRUE,s,90,t,90,1.335599281,7402,,,18S004
9,58,3,same,TRUE,i,90,i,90,0.601273871,7402,,,18S004
9,59,2,diff,TRUE,l,0,t,0,0.585130587,7402,,,18S004
9,60,3,same,TRUE,l,270,l,90,1.669305187,7402,,,18S004
0,0,2,diff,TRUE,t,90,j,180,1.535332024,1390,,,18S016
0,1,3,same,TRUE,t,270,t,270,1.301745933,1390,,,18S016
0,2,2,same,FALSE,s,90,s,0,2.335926356,1390,,,18S016
0,3,3,same,TRUE,t,0,t,270,2.285824852,1390,,,18S016
0,4,3,same,TRUE,l,180,l,270,2.902953295,1390,,,18S016
0,5,2,diff,TRUE,l,180,j,90,2.936378115,1390,,,18S016
0,6,2,diff,TRUE,t,0,j,180,1.385293627,1390,,,18S016
0,7,2,diff,TRUE,s,90,t,270,1.418572201,1390,,,18S016
0,8,2,diff,TRUE,j,0,l,90,2.43597043,1390,,,18S016
0,9,3,same,TRUE,j,270,j,90,2.602863477,1390,,,18S016
0,10,2,diff,TRUE,s,90,l,180,1.085013155,1390,,,18S016
0,11,2,diff,TRUE,i,0,t,180,1.051658453,1390,,,18S016
0,12,3,same,TRUE,j,0,j,180,1.802340599,1390,,,18S016
0,13,2,diff,TRUE,s,0,i,90,0.95183308,1390,,,18S016
0,14,2,diff,TRUE,j,90,t,90,1.034931017,1390,,,18S016
0,15,3,same,TRUE,t,270,t,90,3.403320579,1390,,,18S016
0,16,3,same,TRUE,l,90,l,90,1.135077931,1390,,,18S016
0,17,2,diff,TRUE,t,0,z,0,0.934878262,1390,,,18S016
0,18,2,same,FALSE,l,270,l,0,1.318474704,1390,,,18S016
0,19,2,diff,TRUE,l,270,z,0,1.151699522,1390,,,18S016
0,20,2,diff,TRUE,t,90,z,90,1.602001362,1390,,,18S016
0,21,2,diff,TRUE,o,0,l,0,1.201851444,1390,,,18S016
0,22,2,diff,TRUE,o,0,l,180,0.96822829,1390,,,18S016
0,23,2,diff,TRUE,j,90,o,0,1.15166847,1390,,,18S016
0,24,2,diff,TRUE,z,0,l,270,0.751403024,1390,,,18S016
0,25,3,same,TRUE,l,0,l,0,0.718072028,1390,,,18S016
0,26,2,diff,TRUE,l,180,j,270,6.188743756,1390,,,18S016
0,27,3,diff,FALSE,z,90,s,90,4.070624316,1390,,,18S016
0,28,3,same,TRUE,l,270,l,180,2.085976107,1390,,,18S016
0,29,2,diff,TRUE,s,90,l,90,1.201631407,1390,,,18S016
0,30,2,diff,TRUE,i,0,l,180,0.834757392,1390,,,18S016
0,31,3,same,TRUE,j,0,j,270,1.268612269,1390,,,18S016
0,32,2,diff,TRUE,z,0,i,90,0.851516548,1390,,,18S016
0,33,3,same,TRUE,j,90,j,180,2.25252758,1390,,,18S016
0,34,3,diff,FALSE,s,0,z,0,4.754222093,1390,,,18S016
0,35,2,diff,TRUE,t,0,j,270,0.918125451,1390,,,18S016
0,36,2,diff,TRUE,j,270,l,0,3.086545396,1390,,,18S016
0,37,3,same,TRUE,z,90,z,90,1.235222173,1390,,,18S016
0,38,3,same,TRUE,j,180,j,270,1.818919451,1390,,,18S016
0,39,3,same,TRUE,t,180,t,270,1.268349828,1390,,,18S016
0,40,2,diff,TRUE,z,0,s,90,5.771754214,1390,,,18S016
0,41,2,diff,TRUE,j,180,t,0,1.418585557,1390,,,18S016
0,42,2,diff,TRUE,l,0,j,90,4.02055954,1390,,,18S016
0,43,3,same,TRUE,i,90,i,90,1.085052555,1390,,,18S016
0,44,2,diff,TRUE,j,0,l,270,1.802265139,1390,,,18S016
0,45,3,same,TRUE,j,270,j,270,1.385296632,1390,,,18S016
0,46,3,same,TRUE,j,90,j,90,0.801406029,1390,,,18S016
0,47,2,diff,TRUE,t,270,l,90,1.08495439,1390,,,18S016
0,48,2,diff,TRUE,z,90,l,0,0.93490464,1390,,,18S016
0,49,3,same,TRUE,j,0,j,90,1.034841868,1390,,,18S016
0,50,3,same,TRUE,z,90,z,0,1.702093517,1390,,,18S016
0,51,2,diff,TRUE,l,0,j,180,2.369223295,1390,,,18S016
0,52,2,diff,TRUE,t,90,s,0,1.23528795,1390,,,18S016
0,53,3,same,TRUE,t,270,t,180,1.668725793,1390,,,18S016
0,54,3,same,TRUE,j,180,j,180,0.75151588,1390,,,18S016
0,55,2,diff,TRUE,z,90,j,270,0.918324786,1390,,,18S016
0,56,3,same,TRUE,t,0,t,0,0.968188557,1390,,,18S016
0,57,3,same,TRUE,j,0,j,0,0.651413374,1390,,,18S016
0,58,3,same,TRUE,l,270,l,270,0.551206026,1390,,,18S016
0,59,2,diff,TRUE,j,0,s,90,0.884906309,1390,,,18S016
1,60,3,same,TRUE,t,180,t,0,0.93503586,1390,,,18S016
1,61,3,same,TRUE,j,180,j,0,1.752157625,1390,,,18S016
1,62,3,same,TRUE,t,0,t,90,1.635445215,1390,,,18S016
1,63,3,same,TRUE,s,90,s,90,0.801542258,1390,,,18S016
1,64,3,same,TRUE,l,180,l,180,0.618057336,1390,,,18S016
1,65,3,diff,FALSE,z,0,s,0,3.936946737,1390,,,18S016
1,66,3,same,TRUE,t,270,t,0,1.118327123,1390,,,18S016
1,67,2,diff,TRUE,t,90,j,90,0.918161511,1390,,,18S016
1,68,3,diff,FALSE,t,270,s,0,1.018256337,1390,,,18S016
1,69,2,diff,TRUE,l,180,j,180,5.104525603,1390,,,18S016
1,70,2,diff,TRUE,z,90,o,0,0.85161705,1390,,,18S016
1,71,3,same,TRUE,l,270,l,90,1.635319336,1390,,,18S016
1,72,3,same,TRUE,l,180,l,0,2.035758407,1390,,,18S016
1,73,3,same,TRUE,j,180,j,90,1.451929909,1390,,,18S016
1,74,3,same,TRUE,j,90,j,0,1.451913548,1390,,,18S016
1,75,2,diff,TRUE,l,270,t,180,1.435392793,1390,,,18S016
1,76,2,diff,TRUE,l,270,z,90,0.818168523,1390,,,18S016
1,77,2,diff,TRUE,j,180,o,0,0.918279376,1390,,,18S016
1,78,3,same,TRUE,j,270,j,0,1.085023172,1390,,,18S016
1,79,2,diff,TRUE,s,90,i,0,0.718171194,1390,,,18S016
1,80,3,same,TRUE,z,0,z,90,2.436044555,1390,,,18S016
1,81,3,same,TRUE,i,0,i,0,0.851502858,1390,,,18S016
1,82,3,same,TRUE,t,90,t,0,1.952388012,1390,,,18S016
1,83,3,same,TRUE,l,90,l,0,1.401884165,1390,,,18S016
1,84,2,diff,TRUE,t,180,l,180,0.935016828,1390,,,18S016
1,85,2,diff,TRUE,j,180,l,0,2.085632529,1390,,,18S016
1,86,2,diff,TRUE,s,0,j,180,0.834783102,1390,,,18S016
1,87,2,diff,TRUE,t,90,l,270,0.851448433,1390,,,18S016
1,88,3,same,TRUE,l,90,l,180,1.868852672,1390,,,18S016
1,89,3,same,TRUE,l,0,l,270,0.851539253,1390,,,18S016
1,90,3,same,TRUE,l,0,l,90,0.801586666,1390,,,18S016
1,91,3,same,TRUE,l,0,l,180,1.501906536,1390,,,18S016
1,92,3,same,TRUE,t,180,t,90,0.934976427,1390,,,18S016
1,93,2,diff,TRUE,l,180,j,0,1.502025069,1390,,,18S016
1,94,2,same,FALSE,s,0,s,90,1.868928133,1390,,,18S016
1,95,2,diff,TRUE,t,180,z,0,1.385200136,1390,,,18S016
1,96,2,diff,TRUE,i,0,t,90,0.784736023,1390,,,18S016
1,97,3,same,TRUE,t,90,t,180,1.018471365,1390,,,18S016
1,98,3,same,TRUE,l,180,l,90,1.418662353,1390,,,18S016
1,99,3,same,TRUE,j,90,j,270,1.685568088,1390,,,18S016
1,100,2,diff,TRUE,t,0,s,0,0.801498518,1390,,,18S016
1,101,2,diff,TRUE,l,0,t,90,1.251648102,1390,,,18S016
1,102,2,diff,TRUE,l,90,z,0,0.701442089,1390,,,18S016
1,103,3,same,TRUE,s,0,s,0,1.201651775,1390,,,18S016
1,104,3,same,TRUE,o,0,o,0,0.634784772,1390,,,18S016
1,105,3,same,TRUE,t,0,t,180,1.88559146,1390,,,18S016
1,106,3,same,TRUE,i,0,i,90,1.018388226,1390,,,18S016
1,107,2,diff,TRUE,j,270,o,0,0.784778428,1390,,,18S016
1,108,2,diff,TRUE,j,270,i,90,0.834935024,1390,,,18S016
1,109,2,diff,TRUE,l,0,i,90,0.834890282,1390,,,18S016
1,110,3,same,TRUE,i,90,i,0,0.918211595,1390,,,18S016
1,111,3,same,TRUE,z,0,z,0,0.667912426,1390,,,18S016
1,112,2,diff,TRUE,i,0,t,270,0.68475205,1390,,,18S016
1,113,3,same,TRUE,j,270,j,180,1.485241873,1390,,,18S016
1,114,3,same,TRUE,l,90,l,270,1.368586559,1390,,,18S016
1,115,3,same,TRUE,t,180,t,180,0.751360953,1390,,,18S016
1,116,2,diff,TRUE,s,90,t,90,1.068275035,1390,,,18S016
1,117,2,diff,TRUE,j,90,t,180,0.884994457,1390,,,18S016
1,118,3,same,TRUE,t,90,t,90,0.734790114,1390,,,18S016
1,119,2,diff,TRUE,j,180,s,0,1.051607701,1390,,,18S016
1,120,3,same,TRUE,t,90,t,270,2.085768758,1390,,,18S016
2,0,2,diff,TRUE,s,0,l,90,0.784809146,1390,,,18S016
2,1,2,diff,TRUE,j,270,t,270,0.75152957,1390,,,18S016
2,2,3,same,TRUE,i,90,i,90,0.651320552,1390,,,18S016
2,3,2,same,FALSE,j,90,j,270,2.235874937,1390,,,18S016
2,4,3,same,TRUE,l,90,l,180,1.702170647,1390,,,18S016
2,5,3,same,TRUE,t,180,t,0,0.901450771,1390,,,18S016
2,6,3,same,TRUE,s,90,s,90,0.751567968,1390,,,18S016
2,7,2,diff,TRUE,l,270,t,270,0.934804472,1390,,,18S016
2,8,3,same,TRUE,z,90,z,0,1.935758741,1390,,,18S016
2,9,3,same,TRUE,j,90,j,0,1.435342041,1390,,,18S016
2,10,2,diff,TRUE,t,0,o,0,0.834896626,1390,,,18S016
2,11,3,same,TRUE,j,180,j,0,1.668661017,1390,,,18S016
2,12,2,diff,TRUE,i,0,s,0,0.534694286,1390,,,18S016
2,13,2,diff,TRUE,j,180,s,90,0.801479819,1390,,,18S016
2,14,2,diff,TRUE,t,270,o,0,0.517762174,1390,,,18S016
2,15,3,same,TRUE,s,0,s,90,2.269234981,1390,,,18S016
2,16,3,same,TRUE,t,270,t,180,1.235154393,1390,,,18S016
2,17,2,diff,TRUE,z,0,t,180,0.984915324,1390,,,18S016
2,18,3,same,TRUE,t,0,t,0,1.33523219,1390,,,18S016
2,19,2,diff,TRUE,i,0,o,0,0.98490297,1390,,,18S016
2,20,3,same,TRUE,t,90,t,270,1.11824632,1390,,,18S016
2,21,3,same,TRUE,l,0,l,270,0.868336806,1390,,,18S016
2,22,3,same,TRUE,t,270,t,90,1.835620843,1390,,,18S016
2,23,2,diff,TRUE,z,90,t,270,0.851707535,1390,,,18S016
2,24,2,diff,TRUE,l,0,z,0,0.851422056,1390,,,18S016
2,25,2,diff,TRUE,l,0,s,90,0.701480821,1390,,,18S016
2,26,3,same,TRUE,l,0,l,180,1.018403585,1390,,,18S016
2,27,3,same,TRUE,l,90,l,270,0.968215268,1390,,,18S016
2,28,2,diff,TRUE,s,0,j,270,0.634765406,1390,,,18S016
2,29,2,diff,TRUE,l,270,j,270,1.13501015,1390,,,18S016
2,30,3,same,TRUE,l,0,l,90,1.034929348,1390,,,18S016
2,31,2,diff,TRUE,j,270,t,0,0.701462123,1390,,,18S016
2,32,2,diff,TRUE,t,180,o,0,0.65125611,1390,,,18S016
2,33,3,same,TRUE,s,0,s,0,0.834870916,1390,,,18S016
2,34,3,same,TRUE,t,180,t,90,0.984836859,1390,,,18S016
2,35,3,same,TRUE,l,0,l,0,0.634696624,1390,,,18S016
2,36,3,same,TRUE,t,0,t,180,0.884863237,1390,,,18S016
2,37,3,same,TRUE,j,0,j,270,0.884963405,1390,,,18S016
2,38,2,diff,TRUE,s,90,i,90,0.651479486,1390,,,18S016
2,39,2,diff,TRUE,i,0,t,0,0.634817827,1390,,,18S016
2,40,2,diff,TRUE,t,180,i,90,0.617967519,1390,,,18S016
2,41,2,diff,TRUE,j,270,l,90,1.802224738,1390,,,18S016
2,42,2,diff,TRUE,o,0,t,90,0.751542925,1390,,,18S016
2,43,2,diff,TRUE,i,0,j,90,0.668163515,1390,,,18S016
2,44,2,diff,TRUE,o,0,l,270,0.734849213,1390,,,18S016
2,45,2,diff,TRUE,t,0,l,180,0.718183548,1390,,,18S016
2,46,3,same,TRUE,i,90,i,0,0.834824171,1390,,,18S016
2,47,2,diff,TRUE,t,180,i,0,0.801409034,1390,,,18S016
2,48,2,diff,TRUE,z,90,i,0,0.584730347,1390,,,18S016
2,49,2,diff,TRUE,i,90,o,0,0.984838195,1390,,,18S016
2,50,2,diff,TRUE,o,0,t,0,0.551320218,1390,,,18S016
2,51,3,same,TRUE,i,0,i,90,0.634641865,1390,,,18S016
2,52,2,diff,TRUE,o,0,j,180,0.584719328,1390,,,18S016
2,53,2,diff,TRUE,o,0,z,0,0.617976868,1390,,,18S016
2,54,3,same,TRUE,t,270,t,270,0.66795049,1390,,,18S016
2,55,2,diff,TRUE,j,0,l,180,1.235066912,1390,,,18S016
2,56,2,diff,TRUE,l,180,t,90,0.734724671,1390,,,18S016
2,57,2,diff,TRUE,i,90,z,0,0.534635187,1390,,,18S016
2,58,3,same,TRUE,l,180,l,90,1.452011045,1390,,,18S016
2,59,2,diff,TRUE,s,0,j,90,0.601406363,1390,,,18S016
3,60,3,diff,FALSE,s,90,z,0,0.918262681,1390,,,18S016
3,61,2,diff,TRUE,j,0,i,0,0.518059006,1390,,,18S016
3,62,3,same,TRUE,i,0,i,0,0.617962176,1390,,,18S016
3,63,3,same,TRUE,z,0,z,90,1.218508094,1390,,,18S016
3,64,3,same,TRUE,z,0,z,0,0.651271803,1390,,,18S016
3,65,2,diff,TRUE,l,0,i,0,0.534736691,1390,,,18S016
3,66,2,same,FALSE,t,180,t,180,0.601325226,1390,,,18S016
3,67,2,diff,TRUE,o,0,t,270,0.834896626,1390,,,18S016
3,68,3,same,TRUE,j,0,j,180,1.418737145,1390,,,18S016
3,69,2,diff,TRUE,l,270,j,0,1.068438644,1390,,,18S016
3,70,2,diff,TRUE,j,90,s,90,1.185125344,1390,,,18S016
3,71,3,same,TRUE,j,270,j,0,0.818225619,1390,,,18S016
3,72,3,same,TRUE,t,180,t,270,0.701240417,1390,,,18S016
3,73,3,same,TRUE,l,180,l,270,1.018352165,1390,,,18S016
3,74,2,diff,TRUE,l,180,z,90,0.701348933,1390,,,18S016
3,75,2,diff,TRUE,l,90,j,0,1.351963966,1390,,,18S016
3,76,3,same,TRUE,t,0,t,90,0.801345928,1390,,,18S016
3,77,3,same,TRUE,j,180,j,180,0.868301413,1390,,,18S016
3,78,2,diff,TRUE,j,270,z,90,0.61812111,1390,,,18S016
3,79,2,diff,TRUE,z,0,t,90,1.034912653,1390,,,18S016
3,80,3,same,TRUE,j,270,j,180,1.568671368,1390,,,18S016
3,81,2,diff,TRUE,l,0,j,0,0.951642092,1390,,,18S016
3,82,2,diff,TRUE,i,90,t,90,1.218378543,1390,,,18S016
3,83,3,same,TRUE,j,270,j,270,0.751537249,1390,,,18S016
3,84,2,diff,TRUE,l,0,t,270,0.785000134,1390,,,18S016
3,85,3,same,TRUE,j,90,j,180,1.852363638,1390,,,18S016
3,86,2,same,FALSE,o,0,o,0,0.601285827,1390,,,18S016
3,87,3,same,TRUE,j,90,j,90,0.88485489,1390,,,18S016
3,88,2,diff,TRUE,l,0,s,0,0.617977869,1390,,,18S016
3,89,3,same,TRUE,l,270,l,90,2.619532147,1390,,,18S016
3,90,2,diff,TRUE,t,180,s,90,1.151746267,1390,,,18S016
3,91,3,same,TRUE,t,90,t,90,0.751562291,1390,,,18S016
3,92,3,same,TRUE,j,180,j,270,1.485346716,1390,,,18S016
3,93,2,diff,TRUE,t,270,l,0,0.734906977,1390,,,18S016
3,94,3,same,TRUE,l,180,l,180,0.667977536,1390,,,18S016
3,95,2,diff,TRUE,j,0,t,180,0.751451772,1390,,,18S016
3,96,3,same,TRUE,t,270,t,0,1.034942036,1390,,,18S016
3,97,3,same,TRUE,t,90,t,180,0.851594345,1390,,,18S016
3,98,3,same,TRUE,l,270,l,0,0.935057229,1390,,,18S016
3,99,3,same,TRUE,l,90,l,90,0.684788778,1390,,,18S016
3,100,2,diff,TRUE,j,0,z,90,0.734784104,1390,,,18S016
3,101,3,same,TRUE,l,180,l,0,1.151848773,1390,,,18S016
3,102,3,same,TRUE,t,90,t,0,0.818197906,1390,,,18S016
3,103,2,diff,TRUE,s,0,t,180,0.768002578,1390,,,18S016
3,104,2,diff,TRUE,l,180,z,0,0.701397681,1390,,,18S016
3,105,3,same,TRUE,j,0,j,90,0.934909314,1390,,,18S016
3,106,3,same,TRUE,l,90,l,0,0.851477148,1390,,,18S016
3,107,3,same,TRUE,j,270,j,90,1.201822061,1390,,,18S016
3,108,3,same,TRUE,s,90,s,0,0.985037196,1390,,,18S016
3,109,3,same,TRUE,t,0,t,270,1.035073256,1390,,,18S016
3,110,2,diff,TRUE,j,0,s,0,0.934905308,1390,,,18S016
3,111,2,diff,TRUE,j,0,t,270,0.801518217,1390,,,18S016
3,112,3,same,TRUE,l,270,l,180,1.502045102,1390,,,18S016
3,113,3,same,TRUE,j,0,j,0,0.651474143,1390,,,18S016
3,114,2,diff,TRUE,z,90,t,180,0.884907311,1390,,,18S016
3,115,3,same,TRUE,z,90,z,90,0.884870916,1390,,,18S016
3,116,3,diff,FALSE,z,90,s,0,1.084891618,1390,,,18S016
3,117,3,same,TRUE,j,180,j,90,1.151762628,1390,,,18S016
3,118,3,same,TRUE,l,270,l,270,0.834956727,1390,,,18S016
3,119,2,diff,TRUE,l,270,i,90,0.684682934,1390,,,18S016
3,120,2,diff,TRUE,l,0,t,180,0.718155835,1390,,,18S016
4,0,3,same,TRUE,t,270,t,180,0.768183548,1390,,,18S016
4,1,3,same,TRUE,z,90,z,0,0.884882603,1390,,,18S016
4,2,3,same,TRUE,t,0,t,0,0.784761399,1390,,,18S016
4,3,2,diff,TRUE,l,0,t,0,0.684654553,1390,,,18S016
4,4,2,diff,TRUE,i,0,s,90,0.601427064,1390,,,18S016
4,5,3,same,TRUE,j,270,j,180,1.368581884,1390,,,18S016
4,6,3,diff,FALSE,j,90,l,270,1.168524454,1390,,,18S016
4,7,2,diff,TRUE,s,0,t,0,0.968390229,1390,,,18S016
4,8,3,same,TRUE,j,90,j,180,2.319362529,1390,,,18S016
4,9,3,same,TRUE,l,0,l,0,0.651323223,1390,,,18S016
4,10,2,diff,TRUE,i,0,z,90,0.801452774,1390,,,18S016
4,11,3,same,TRUE,j,0,j,0,0.61801393,1390,,,18S016
4,12,3,same,TRUE,t,90,t,90,0.751345594,1390,,,18S016
4,13,3,same,TRUE,l,180,l,270,1.118388893,1390,,,18S016
4,14,3,same,TRUE,s,0,s,90,1.018209592,1390,,,18S016
4,15,2,diff,TRUE,s,90,j,270,0.784757726,1390,,,18S016
4,16,3,same,TRUE,t,180,t,0,0.801563293,1390,,,18S016
4,17,3,same,TRUE,l,90,l,90,0.618127788,1390,,,18S016
4,18,3,same,TRUE,i,90,i,0,0.684777092,1390,,,18S016
4,19,3,same,TRUE,t,90,t,180,0.634745372,1390,,,18S016
4,20,2,diff,TRUE,i,90,z,90,0.584654887,1390,,,18S016
4,21,2,diff,TRUE,i,90,j,270,0.851485496,1390,,,18S016
4,22,3,same,TRUE,l,270,l,0,0.701407364,1390,,,18S016
4,23,3,same,TRUE,j,270,j,90,1.118500748,1390,,,18S016
4,24,2,diff,TRUE,z,0,o,0,0.701392339,1390,,,18S016
4,25,3,same,TRUE,t,0,t,270,0.768097404,1390,,,18S016
4,26,3,same,TRUE,j,180,j,0,0.968226955,1390,,,18S016
4,27,3,same,TRUE,s,90,s,90,0.634565069,1390,,,18S016
4,28,2,diff,TRUE,l,180,t,0,0.918153832,1390,,,18S016
4,29,2,same,FALSE,l,180,l,90,1.235012822,1390,,,18S016
4,30,2,diff,TRUE,o,0,l,90,0.85145244,1390,,,18S016
4,31,2,diff,TRUE,s,90,j,180,0.8681545,1390,,,18S016
4,32,2,diff,TRUE,j,0,z,0,0.818020942,1390,,,18S016
4,33,3,same,TRUE,j,90,j,0,1.018317774,1390,,,18S016
4,34,3,same,TRUE,i,0,i,90,0.93501616,1390,,,18S016
4,35,3,same,TRUE,t,180,t,90,0.81829173,1390,,,18S016
4,36,2,diff,TRUE,t,180,l,270,1.335204811,1390,,,18S016
4,37,2,diff,TRUE,t,90,l,180,1.068350496,1390,,,18S016
4,38,3,same,TRUE,l,90,l,270,1.151818722,1390,,,18S016
4,39,2,diff,TRUE,i,90,t,0,0.80143441,1390,,,18S016
4,40,3,same,TRUE,t,90,t,270,1.101738587,1390,,,18S016
4,41,2,diff,TRUE,l,90,j,90,2.652721906,1390,,,18S016
4,42,2,diff,TRUE,l,180,s,90,0.801413041,1390,,,18S016
4,43,3,same,TRUE,l,270,l,180,0.901577317,1390,,,18S016
4,44,3,same,TRUE,j,0,j,90,0.851643762,1390,,,18S016
4,45,2,diff,TRUE,l,90,s,0,0.701404025,1390,,,18S016
4,46,2,diff,TRUE,j,270,s,90,0.6347023,1390,,,18S016
4,47,2,diff,TRUE,s,0,j,0,0.651344592,1390,,,18S016
4,48,3,same,TRUE,j,180,j,180,0.668033964,1390,,,18S016
4,49,3,same,TRUE,t,270,t,0,1.301739255,1390,,,18S016
4,50,2,diff,TRUE,z,90,t,0,0.884868579,1390,,,18S016
4,51,3,same,TRUE,l,90,l,0,0.851554612,1390,,,18S016
4,52,2,diff,TRUE,s,0,l,180,0.634855223,1390,,,18S016
4,53,2,same,FALSE,o,0,o,0,0.668174199,1390,,,18S016
4,54,3,same,TRUE,l,0,l,270,0.718183548,1390,,,18S016
4,55,2,diff,TRUE,t,270,i,90,0.717987219,1390,,,18S016
4,56,3,same,TRUE,l,270,l,90,1.168485723,1390,,,18S016
4,57,3,same,TRUE,i,0,i,0,0.701315543,1390,,,18S016
4,58,3,same,TRUE,z,0,z,0,0.768257673,1390,,,18S016
4,59,3,same,TRUE,j,0,j,180,1.502031413,1390,,,18S016
5,60,2,diff,TRUE,t,90,o,0,0.651361621,1390,,,18S016
5,61,3,same,TRUE,t,0,t,90,0.751351604,1390,,,18S016
5,62,2,diff,TRUE,z,0,j,180,0.768174533,1390,,,18S016
5,63,3,same,TRUE,s,0,s,0,0.651333574,1390,,,18S016
5,64,2,diff,TRUE,t,270,s,90,1.218441649,1390,,,18S016
5,65,2,diff,TRUE,t,90,s,90,1.018199575,1390,,,18S016
5,66,3,same,TRUE,l,0,l,90,0.734795122,1390,,,18S016
5,67,3,same,TRUE,z,90,z,90,0.818263015,1390,,,18S016
5,68,3,same,TRUE,l,180,l,0,1.652080495,1390,,,18S016
5,69,2,diff,TRUE,i,90,j,90,0.651334575,1390,,,18S016
5,70,2,diff,TRUE,t,270,z,0,0.851574645,1390,,,18S016
5,71,2,diff,TRUE,j,270,s,0,0.634772418,1390,,,18S016
5,72,3,same,TRUE,i,90,i,90,0.684768411,1390,,,18S016
5,73,2,diff,TRUE,l,90,i,0,0.584737025,1390,,,18S016
5,74,3,same,TRUE,t,0,t,180,0.851673812,1390,,,18S016
5,75,2,diff,TRUE,j,90,t,0,0.768296739,1390,,,18S016
5,76,2,diff,TRUE,l,180,i,90,0.75140102,1390,,,18S016
5,77,2,diff,TRUE,z,0,l,180,0.618017603,1390,,,18S016
5,78,2,diff,TRUE,s,0,l,270,0.651335243,1390,,,18S016
5,79,2,diff,TRUE,z,90,j,180,0.667915765,1390,,,18S016
5,80,2,diff,TRUE,j,180,l,90,3.203325253,1390,,,18S016
5,81,3,same,TRUE,j,90,j,270,1.735515666,1390,,,18S016
5,82,2,diff,TRUE,i,0,j,270,0.734823503,1390,,,18S016
5,83,3,same,TRUE,z,0,z,90,1.635470257,1390,,,18S016
5,84,3,same,TRUE,l,0,l,180,1.501958624,1390,,,18S016
5,85,3,same,TRUE,l,90,l,180,1.351957622,1390,,,18S016
5,86,2,diff,TRUE,o,0,i,0,0.651354943,1390,,,18S016
5,87,3,same,TRUE,j,0,j,270,0.801528568,1390,,,18S016
5,88,2,diff,TRUE,i,90,l,90,0.718036301,1390,,,18S016
5,89,2,diff,TRUE,z,0,t,0,0.86808505,1390,,,18S016
5,90,3,same,TRUE,j,90,j,90,0.984898964,1390,,,18S016
5,91,2,diff,TRUE,t,0,l,0,0.601303189,1390,,,18S016
5,92,3,same,TRUE,j,270,j,270,0.601400353,1390,,,18S016
5,93,3,same,TRUE,t,270,t,270,0.684875591,1390,,,18S016
5,94,3,same,TRUE,s,90,s,0,1.351938256,1390,,,18S016
5,95,2,diff,TRUE,t,270,j,180,1.285193458,1390,,,18S016
5,96,3,same,TRUE,t,90,t,0,0.851461121,1390,,,18S016
5,97,3,same,TRUE,l,180,l,180,0.568023947,1390,,,18S016
5,98,2,diff,TRUE,j,90,z,0,1.018425288,1390,,,18S016
5,99,3,same,TRUE,j,180,j,270,1.55213492,1390,,,18S016
5,100,3,same,TRUE,j,180,j,90,1.118351497,1390,,,18S016
5,101,2,diff,TRUE,i,90,j,0,0.83489863,1390,,,18S016
5,102,2,diff,TRUE,t,0,j,90,0.734888279,1390,,,18S016
5,103,2,diff,TRUE,l,90,j,180,2.736280284,1390,,,18S016
5,104,2,diff,TRUE,i,0,j,180,0.584650212,1390,,,18S016
5,105,2,diff,TRUE,j,180,t,270,0.768239309,1390,,,18S016
5,106,3,same,TRUE,t,180,t,270,0.784782768,1390,,,18S016
5,107,2,diff,TRUE,t,0,l,90,0.868297072,1390,,,18S016
5,108,2,diff,TRUE,l,270,t,0,1.085095627,1390,,,18S016
5,109,3,same,TRUE,t,180,t,180,0.701367297,1390,,,18S016
5,110,2,diff,TRUE,l,90,t,0,0.484766741,1390,,,18S016
5,111,3,same,TRUE,t,270,t,90,1.101783329,1390,,,18S016
5,112,2,diff,TRUE,j,90,z,90,0.584563066,1390,,,18S016
5,113,3,same,TRUE,l,270,l,270,0.584774421,1390,,,18S016
5,114,2,diff,TRUE,t,0,z,90,0.534677592,1390,,,18S016
5,115,2,diff,TRUE,o,0,s,90,0.551334242,1390,,,18S016
5,116,2,diff,TRUE,s,90,j,90,0.718245653,1390,,,18S016
5,117,2,diff,TRUE,t,90,l,0,0.651329901,1390,,,18S016
5,118,3,same,TRUE,j,270,j,0,0.701308866,1390,,,18S016
5,119,2,diff,TRUE,s,0,l,0,0.751404025,1390,,,18S016
5,120,2,diff,TRUE,i,0,j,0,0.551280818,1390,,,18S016
6,0,3,same,TRUE,t,0,t,90,1.368489062,1390,,,18S016
6,1,3,same,TRUE,t,270,t,270,0.617934129,1390,,,18S016
6,2,3,same,TRUE,l,180,l,90,1.018284718,1390,,,18S016
6,3,3,same,TRUE,i,90,i,90,0.667989556,1390,,,18S016
6,4,3,same,TRUE,j,180,j,180,0.567990891,1390,,,18S016
6,5,3,same,TRUE,l,270,l,0,0.71814682,1390,,,18S016
6,6,3,same,TRUE,t,0,t,270,0.684682266,1390,,,18S016
6,7,2,diff,TRUE,j,90,l,90,2.052409047,1390,,,18S016
6,8,2,diff,TRUE,j,90,t,270,1.16824031,1390,,,18S016
6,9,3,same,TRUE,j,90,j,0,1.034898296,1390,,,18S016
6,10,2,diff,TRUE,t,0,i,90,0.651329901,1390,,,18S016
6,11,3,same,TRUE,l,270,l,90,0.684619494,1390,,,18S016
6,12,2,diff,TRUE,t,180,j,270,0.751460454,1390,,,18S016
6,13,3,same,TRUE,o,0,o,0,0.985016494,1390,,,18S016
6,14,3,same,TRUE,z,0,z,90,1.001554278,1390,,,18S016
6,15,2,diff,TRUE,z,90,l,90,0.784699295,1390,,,18S016
6,16,2,diff,TRUE,s,0,t,90,0.684625838,1390,,,18S016
6,17,2,diff,TRUE,j,0,t,0,0.818080709,1390,,,18S016
6,18,2,diff,TRUE,j,180,t,180,0.584644202,1390,,,18S016
6,19,2,diff,TRUE,l,90,j,270,3.203131928,1390,,,18S016
6,20,2,diff,TRUE,i,90,l,270,0.634802802,1390,,,18S016
6,21,2,diff,TRUE,s,90,l,0,0.668055667,1390,,,18S016
6,22,3,same,TRUE,s,90,s,0,0.818188891,1390,,,18S016
6,23,3,same,TRUE,j,90,j,90,0.718031293,1390,,,18S016
6,24,3,same,TRUE,j,180,j,270,3.169901768,1390,,,18S016
6,25,3,same,TRUE,j,270,j,0,0.718016601,1390,,,18S016
6,26,2,diff,TRUE,o,0,t,180,0.567996234,1390,,,18S016
6,27,3,same,TRUE,l,90,l,90,0.58458911,1390,,,18S016
6,28,3,same,TRUE,t,90,t,270,0.884831517,1390,,,18S016
6,29,3,same,TRUE,j,270,j,270,0.567842976,1390,,,18S016
6,30,3,same,TRUE,l,90,l,180,0.734751048,1390,,,18S016
6,31,3,same,TRUE,t,180,t,270,0.868263015,1390,,,18S016
6,32,2,diff,TRUE,i,90,s,90,0.617890389,1390,,,18S016
6,33,2,diff,TRUE,j,90,l,180,2.285715669,1390,,,18S016
6,34,2,diff,TRUE,t,180,j,0,0.851509202,1390,,,18S016
6,35,2,diff,TRUE,l,0,z,90,0.668048989,1390,,,18S016
6,36,2,diff,TRUE,l,180,t,270,0.634633184,1390,,,18S016
6,37,2,diff,TRUE,j,270,i,0,0.584633518,1390,,,18S016
6,38,3,same,TRUE,t,180,t,180,0.601373641,1390,,,18S016
6,39,2,diff,TRUE,t,90,l,90,0.684849213,1390,,,18S016
6,40,2,diff,TRUE,z,0,l,90,0.584728344,1390,,,18S016
6,41,2,diff,TRUE,i,90,t,180,0.551201018,1390,,,18S016
6,42,2,diff,TRUE,t,270,j,0,0.618008588,1390,,,18S016
6,43,3,same,TRUE,t,90,t,90,0.651341921,1390,,,18S016
6,44,2,diff,TRUE,l,180,i,0,0.584696958,1390,,,18S016
6,45,3,same,TRUE,l,90,l,0,0.684709979,1390,,,18S016
6,46,2,diff,TRUE,l,270,j,90,1.068386556,1390,,,18S016
6,47,3,same,TRUE,l,180,l,0,1.218562184,1390,,,18S016
6,48,2,diff,TRUE,o,0,s,0,0.618160844,1390,,,18S016
6,49,3,same,TRUE,j,180,j,90,1.985755069,1390,,,18S016
6,50,2,diff,TRUE,t,270,j,270,1.051655114,1390,,,18S016
6,51,3,same,TRUE,t,270,t,180,1.1683732,1390,,,18S016
6,52,3,same,TRUE,j,270,j,90,0.818075367,1390,,,18S016
6,53,3,diff,FALSE,s,0,z,90,1.001559286,1390,,,18S016
6,54,2,diff,TRUE,j,270,l,270,2.452657131,1390,,,18S016
6,55,3,same,TRUE,t,90,t,180,0.934840866,1390,,,18S016
6,56,2,diff,TRUE,i,0,l,0,0.81810909,1390,,,18S016
6,57,3,same,TRUE,l,0,l,270,0.818084716,1390,,,18S016
6,58,2,diff,TRUE,l,90,t,270,0.784858228,1390,,,18S016
6,59,3,same,TRUE,s,0,s,90,1.185022838,1390,,,18S016
7,60,3,same,TRUE,t,0,t,0,1.034979432,1390,,,18S016
7,61,3,same,TRUE,t,270,t,90,1.084961736,1390,,,18S016
7,62,3,same,TRUE,z,0,z,0,0.801452106,1390,,,18S016
7,63,2,diff,TRUE,o,0,j,270,0.651488835,1390,,,18S016
7,64,2,diff,TRUE,j,90,i,90,0.701489502,1390,,,18S016
7,65,2,diff,TRUE,o,0,j,0,0.584711315,1390,,,18S016
7,66,3,same,TRUE,l,0,l,180,0.734919665,1390,,,18S016
7,67,2,diff,TRUE,z,90,t,90,0.918194233,1390,,,18S016
7,68,3,same,TRUE,t,90,t,0,0.784876927,1390,,,18S016
7,69,2,diff,TRUE,i,90,t,270,0.634743703,1390,,,18S016
7,70,2,diff,TRUE,s,0,i,0,0.567946483,1390,,,18S016
7,71,2,same,FALSE,j,0,j,270,0.868208924,1390,,,18S016
7,72,3,same,TRUE,t,180,t,0,0.751544929,1390,,,18S016
7,73,2,diff,TRUE,t,180,j,90,1.051660456,1390,,,18S016
7,74,2,diff,TRUE,z,0,j,90,0.718215602,1390,,,18S016
7,75,2,diff,TRUE,l,180,s,0,0.718242648,1390,,,18S016
7,76,3,same,TRUE,l,180,l,270,1.068448327,1390,,,18S016
7,77,3,same,TRUE,s,90,s,90,0.684806475,1390,,,18S016
7,78,3,same,TRUE,j,90,j,180,1.40198834,1390,,,18S016
7,79,3,same,TRUE,t,0,t,180,0.70147214,1390,,,18S016
7,80,3,same,TRUE,j,0,j,180,0.884905641,1390,,,18S016
7,81,3,same,TRUE,l,90,l,270,0.834781433,1390,,,18S016
7,82,2,diff,TRUE,i,90,l,180,0.65133758,1390,,,18S016
7,83,3,same,TRUE,i,90,i,0,0.718097404,1390,,,18S016
7,84,3,same,TRUE,l,0,l,0,0.584665571,1390,,,18S016
7,85,3,same,TRUE,j,180,j,0,1.235200804,1390,,,18S016
7,86,2,diff,TRUE,l,90,o,0,0.584706307,1390,,,18S016
7,87,3,same,TRUE,j,0,j,90,0.601140583,1390,,,18S016
7,88,2,diff,TRUE,j,270,z,0,0.701401688,1390,,,18S016
7,89,3,same,TRUE,l,270,l,270,0.601390336,1390,,,18S016
7,90,2,diff,TRUE,s,90,l,270,0.718191896,1390,,,18S016
7,91,2,diff,TRUE,l,270,o,0,0.551359617,1390,,,18S016
7,92,2,diff,TRUE,o,0,i,90,0.501161618,1390,,,18S016
7,93,3,same,TRUE,j,90,j,270,0.768038304,1390,,,18S016
7,94,3,same,TRUE,i,0,i,90,0.667996901,1390,,,18S016
7,95,2,diff,TRUE,j,180,l,180,1.735513663,1390,,,18S016
7,96,3,same,TRUE,l,0,l,90,1.00181338,1390,,,18S016
7,97,3,same,TRUE,t,270,t,0,1.368463686,1390,,,18S016
7,98,2,diff,TRUE,z,90,l,180,1.018290061,1390,,,18S016
7,99,3,same,TRUE,l,270,l,180,1.718765192,1390,,,18S016
7,100,2,diff,TRUE,z,0,j,270,0.784812151,1390,,,18S016
7,101,3,same,TRUE,j,270,j,180,1.118432633,1390,,,18S016
7,102,2,diff,TRUE,s,90,t,180,0.768248658,1390,,,18S016
7,103,2,diff,TRUE,j,0,o,0,0.634685605,1390,,,18S016
7,104,3,same,TRUE,s,0,s,0,0.668135801,1390,,,18S016
7,105,2,diff,TRUE,t,0,l,270,1.084904306,1390,,,18S016
7,106,2,diff,TRUE,i,90,j,180,0.984885942,1390,,,18S016
7,107,2,diff,TRUE,z,90,j,0,0.651389334,1390,,,18S016
7,108,3,same,TRUE,j,0,j,0,0.734700964,1390,,,18S016
7,109,2,diff,TRUE,t,90,i,0,0.58463285,1390,,,18S016
7,110,3,same,TRUE,z,90,z,90,0.618028621,1390,,,18S016
7,111,3,same,TRUE,z,90,z,0,1.085083273,1390,,,18S016
7,112,2,diff,TRUE,s,0,o,0,0.517984881,1390,,,18S016
7,113,2,diff,TRUE,z,0,i,0,0.567967853,1390,,,18S016
7,114,2,diff,TRUE,z,0,l,0,0.634748711,1390,,,18S016
7,115,2,diff,TRUE,l,270,t,90,0.668102412,1390,,,18S016
7,116,3,same,TRUE,i,0,i,0,0.751343591,1390,,,18S016
7,117,2,diff,TRUE,o,0,j,90,0.601488501,1390,,,18S016
7,118,3,same,TRUE,t,180,t,90,0.651362289,1390,,,18S016
7,119,3,same,TRUE,l,180,l,180,0.717950824,1390,,,18S016
7,120,2,diff,TRUE,j,90,l,0,2.119160189,1390,,,18S016
8,0,3,same,TRUE,t,90,t,180,0.768079707,1390,,,18S016
8,1,3,same,TRUE,o,0,o,0,0.567936133,1390,,,18S016
8,2,3,same,TRUE,z,90,z,0,0.884859564,1390,,,18S016
8,3,3,same,TRUE,t,0,t,0,0.584629845,1390,,,18S016
8,4,3,same,TRUE,i,0,i,90,0.618045984,1390,,,18S016
8,5,2,diff,TRUE,s,0,t,270,0.901567968,1390,,,18S016
8,6,3,same,TRUE,l,180,l,270,1.184988781,1390,,,18S016
8,7,2,same,FALSE,l,270,l,180,1.818911104,1390,,,18S016
8,8,3,same,TRUE,j,180,j,180,1.03504955,1390,,,18S016
8,9,2,diff,TRUE,t,270,j,90,0.684807143,1390,,,18S016
8,10,2,diff,TRUE,t,90,i,90,0.618104082,1390,,,18S016
8,11,2,diff,TRUE,j,270,t,180,0.618061009,1390,,,18S016
8,12,3,same,TRUE,t,180,t,0,0.734744704,1390,,,18S016
8,13,2,diff,TRUE,l,180,t,180,0.61791276,1390,,,18S016
8,14,2,diff,TRUE,z,90,l,270,0.63472634,1390,,,18S016
8,15,2,diff,TRUE,j,180,i,90,0.618029623,1390,,,18S016
8,16,3,same,TRUE,l,0,l,270,0.718032294,1390,,,18S016
8,17,3,same,TRUE,s,90,s,90,0.68470664,1390,,,18S016
8,18,2,diff,TRUE,j,180,i,0,0.617972527,1390,,,18S016
8,19,2,diff,TRUE,t,90,z,0,0.618084382,1390,,,18S016
8,20,2,diff,TRUE,t,180,l,0,0.501323557,1390,,,18S016
8,21,3,diff,FALSE,s,90,z,90,1.10181338,1390,,,18S016
8,22,2,diff,TRUE,j,180,z,90,0.58486524,1390,,,18S016
8,23,3,same,TRUE,t,270,t,0,0.751437415,1390,,,18S016
8,24,3,same,TRUE,j,270,j,0,0.684831851,1390,,,18S016
8,25,3,same,TRUE,j,0,j,180,0.951545263,1390,,,18S016
8,26,2,diff,TRUE,l,180,o,0,0.534571079,1390,,,18S016
8,27,3,same,TRUE,l,270,l,0,0.634766408,1390,,,18S016
8,28,3,same,TRUE,l,180,l,0,0.818136803,1390,,,18S016
8,29,2,same,FALSE,i,90,i,90,0.985090953,1390,,,18S016
8,30,3,same,TRUE,z,90,z,90,0.768123113,1390,,,18S016
8,31,3,same,TRUE,j,90,j,0,0.818258341,1390,,,18S016
8,32,3,same,TRUE,j,0,j,270,0.567980207,1390,,,18S016
8,33,2,diff,TRUE,t,270,l,180,0.701354275,1390,,,18S016
8,34,3,same,TRUE,j,0,j,90,0.584544034,1390,,,18S016
8,35,3,same,TRUE,z,0,z,0,0.634749713,1390,,,18S016
8,36,3,same,TRUE,t,270,t,90,1.268497409,1390,,,18S016
8,37,2,diff,TRUE,o,0,z,90,0.701385661,1390,,,18S016
8,38,2,diff,TRUE,t,90,j,270,0.734691949,1390,,,18S016
8,39,2,diff,TRUE,j,180,l,270,2.719584235,1390,,,18S016
8,40,3,same,TRUE,j,270,j,270,0.568050658,1390,,,18S016
8,41,2,diff,TRUE,t,180,j,180,0.784933355,1390,,,18S016
8,42,2,diff,TRUE,j,180,z,0,0.651450771,1390,,,18S016
8,43,3,same,TRUE,j,180,j,270,1.468790902,1390,,,18S016
8,44,3,same,TRUE,t,270,t,270,0.684771082,1390,,,18S016
8,45,3,same,TRUE,j,180,j,0,1.401823063,1390,,,18S016
8,46,2,diff,TRUE,s,90,o,0,0.584610813,1390,,,18S016
8,47,2,diff,TRUE,l,0,j,270,2.269211275,1390,,,18S016
8,48,2,diff,TRUE,l,90,t,180,0.651530571,1390,,,18S016
8,49,2,diff,TRUE,l,90,s,90,0.568017603,1390,,,18S016
8,50,2,diff,TRUE,t,270,z,90,0.484603801,1390,,,18S016
8,51,2,diff,TRUE,l,90,t,90,0.651356946,1390,,,18S016
8,52,3,same,TRUE,j,270,j,90,0.951637418,1390,,,18S016
8,53,2,diff,TRUE,s,90,t,0,0.634780431,1390,,,18S016
8,54,2,diff,TRUE,j,0,t,90,0.568125117,1390,,,18S016
8,55,3,same,TRUE,l,270,l,270,0.668077036,1390,,,18S016
8,56,3,diff,FALSE,l,270,j,180,0.701442757,1390,,,18S016
8,57,2,diff,TRUE,i,0,z,0,0.818215602,1390,,,18S016
8,58,2,diff,TRUE,l,90,z,90,0.684712317,1390,,,18S016
8,59,2,diff,TRUE,j,0,l,0,1.285124342,1390,,,18S016
9,60,2,diff,TRUE,t,90,j,0,0.801319216,1390,,,18S016
9,61,3,same,TRUE,j,90,j,180,3.78717078,1390,,,18S016
9,62,3,same,TRUE,l,0,l,180,1.151675815,1390,,,18S016
9,63,2,diff,TRUE,l,270,s,90,0.718210594,1390,,,18S016
9,64,3,same,TRUE,z,0,z,90,0.96831143,1390,,,18S016
9,65,2,diff,TRUE,i,90,s,0,0.601353607,1390,,,18S016
9,66,2,diff,TRUE,t,180,z,90,0.834882603,1390,,,18S016
9,67,2,diff,TRUE,s,90,j,0,0.58491065,1390,,,18S016
9,68,2,diff,TRUE,t,0,j,0,0.451264458,1390,,,18S016
9,69,3,same,TRUE,l,90,l,90,0.668064348,1390,,,18S016
9,70,3,same,TRUE,s,90,s,0,0.868159842,1390,,,18S016
9,71,2,diff,TRUE,t,180,s,0,0.968190226,1390,,,18S016
9,72,2,diff,TRUE,i,0,l,270,0.684679929,1390,,,18S016
9,73,2,diff,TRUE,z,90,i,90,0.517980875,1390,,,18S016
9,74,3,same,TRUE,l,90,l,0,1.302052782,1390,,,18S016
9,75,3,same,TRUE,j,180,j,90,1.135054558,1390,,,18S016
9,76,2,diff,TRUE,l,90,i,90,0.768131461,1390,,,18S016
9,77,3,same,TRUE,l,180,l,180,0.634922002,1390,,,18S016
9,78,2,diff,TRUE,z,0,j,0,0.601325226,1390,,,18S016
9,79,3,same,TRUE,l,270,l,90,1.068249659,1390,,,18S016
9,80,2,diff,TRUE,j,90,i,0,0.601335577,1390,,,18S016
9,81,3,same,TRUE,l,0,l,90,0.818153164,1390,,,18S016
9,82,2,diff,TRUE,i,0,l,90,0.534714988,1390,,,18S016
9,83,2,diff,TRUE,z,90,j,90,0.834834522,1390,,,18S016
9,84,2,diff,TRUE,i,90,l,0,0.65157164,1390,,,18S016
9,85,2,diff,TRUE,j,0,i,90,0.518015266,1390,,,18S016
9,86,3,same,TRUE,i,90,i,0,0.618092061,1390,,,18S016
9,87,2,diff,TRUE,t,270,i,0,0.534506638,1390,,,18S016
9,88,2,diff,TRUE,j,270,l,180,1.552215722,1390,,,18S016
9,89,2,diff,TRUE,t,0,i,0,0.651264792,1390,,,18S016
9,90,2,diff,TRUE,l,270,i,0,0.534550044,1390,,,18S016
9,91,3,same,TRUE,t,90,t,90,0.634650546,1390,,,18S016
9,92,3,same,TRUE,j,0,j,0,0.501237078,1390,,,18S016
9,93,3,same,TRUE,t,0,t,270,1.201865133,1390,,,18S016
9,94,2,diff,TRUE,j,90,s,0,0.701368299,1390,,,18S016
9,95,3,same,TRUE,l,180,l,90,1.268556174,1390,,,18S016
9,96,3,same,TRUE,t,90,t,270,0.968263015,1390,,,18S016
9,97,3,same,TRUE,l,0,l,0,0.534599794,1390,,,18S016
9,98,2,diff,TRUE,t,270,l,270,0.951573644,1390,,,18S016
9,99,3,same,TRUE,t,0,t,90,0.701323223,1390,,,18S016
9,100,3,same,TRUE,l,90,l,180,0.784866576,1390,,,18S016
9,101,2,diff,TRUE,j,180,t,90,0.701497182,1390,,,18S016
9,102,3,same,TRUE,t,0,t,180,0.918147488,1390,,,18S016
9,103,3,same,TRUE,t,180,t,270,0.651231068,1390,,,18S016
9,104,2,diff,TRUE,j,270,t,90,0.734709312,1390,,,18S016
9,105,3,same,TRUE,j,90,j,90,0.834816158,1390,,,18S016
9,106,3,same,TRUE,t,180,t,180,0.617991893,1390,,,18S016
9,107,3,same,TRUE,j,90,j,270,1.001582659,1390,,,18S016
9,108,3,same,TRUE,l,90,l,270,0.701366963,1390,,,18S016
9,109,3,same,TRUE,j,270,j,180,0.718055333,1390,,,18S016
9,110,2,diff,TRUE,l,270,s,0,0.667990557,1390,,,18S016
9,111,2,diff,TRUE,t,180,l,90,0.851487499,1390,,,18S016
9,112,2,diff,TRUE,t,0,s,90,0.601292505,1390,,,18S016
9,113,2,diff,TRUE,z,0,t,270,0.684820832,1390,,,18S016
9,114,2,diff,TRUE,l,0,o,0,0.551374643,1390,,,18S016
9,115,3,same,TRUE,i,0,i,0,0.618017269,1390,,,18S016
9,116,3,same,TRUE,s,0,s,0,0.684832185,1390,,,18S016
9,117,3,same,TRUE,t,90,t,0,1.20171822,1390,,,18S016
9,118,3,same,TRUE,t,270,t,180,0.601354609,1390,,,18S016
9,119,3,same,TRUE,s,0,s,90,0.884992454,1390,,,18S016
9,120,3,same,TRUE,t,180,t,90,1.034939031,1390,,,18S016
0,0,2,diff,TRUE,s,90,z,90,1.601880833,8018,,,18S020
0,1,3,same,TRUE,i,0,i,0,1.400970903,8018,,,18S020
0,2,3,same,TRUE,t,0,t,180,1.885568792,8018,,,18S020
0,3,3,same,TRUE,t,180,t,180,0.734791439,8018,,,18S020
0,4,2,diff,TRUE,l,90,s,90,1.318560464,8018,,,18S020
0,5,3,same,TRUE,l,180,l,270,1.368529303,8018,,,18S020
0,6,2,diff,TRUE,t,270,z,90,1.136352746,8018,,,18S020
0,7,3,same,TRUE,s,90,s,90,0.90137259,8018,,,18S020
0,8,2,diff,TRUE,t,180,j,90,0.80173212,8018,,,18S020
0,9,3,same,TRUE,s,90,s,0,1.16898507,8018,,,18S020
0,10,2,diff,TRUE,z,0,s,90,1.578833552,8018,,,18S020
0,11,2,diff,TRUE,l,180,t,0,0.868280779,8018,,,18S020
0,12,2,diff,TRUE,t,90,j,180,0.867308198,8018,,,18S020
0,13,2,diff,TRUE,s,0,j,270,0.950798431,8018,,,18S020
0,14,2,diff,TRUE,i,90,s,0,0.535122488,8018,,,18S020
0,15,3,same,TRUE,j,0,j,0,0.866931127,8018,,,18S020
0,16,2,diff,TRUE,o,0,t,180,1.318184487,8018,,,18S020
0,17,2,diff,TRUE,l,180,j,270,1.885755504,8018,,,18S020
0,18,2,diff,TRUE,j,0,t,0,0.818148931,8018,,,18S020
0,19,2,same,FALSE,l,270,l,90,1.334957218,8018,,,18S020
0,20,3,same,TRUE,l,180,l,180,0.884549898,8018,,,18S020
0,21,3,same,TRUE,l,90,l,0,1.401904464,8018,,,18S020
0,22,2,diff,TRUE,j,270,t,270,0.851589004,8018,,,18S020
0,23,3,same,TRUE,o,0,o,0,0.886510375,8018,,,18S020
0,24,2,diff,TRUE,t,0,l,90,0.701243423,8018,,,18S020
0,25,3,same,TRUE,i,90,i,0,0.851829688,8018,,,18S020
0,26,3,same,TRUE,l,90,l,180,1.619105029,8018,,,18S020
0,27,3,same,TRUE,t,90,t,270,1.685367785,8018,,,18S020
0,28,3,same,TRUE,j,180,j,180,0.668154529,8018,,,18S020
0,29,3,same,TRUE,z,90,z,90,0.567304077,8018,,,18S020
0,30,3,same,TRUE,l,0,l,0,0.417878928,8018,,,18S020
0,31,2,diff,TRUE,j,90,t,180,0.651141114,8018,,,18S020
0,32,2,diff,TRUE,o,0,t,0,1.102221619,8018,,,18S020
0,33,3,same,TRUE,l,0,l,90,1.184492389,8018,,,18S020
0,34,3,same,TRUE,j,90,j,270,2.385996005,8018,,,18S020
0,35,2,diff,TRUE,i,0,l,180,0.601139819,8018,,,18S020
0,36,2,diff,TRUE,t,90,l,180,0.866880802,8018,,,18S020
0,37,2,diff,TRUE,i,90,z,0,0.517843591,8018,,,18S020
0,38,3,same,TRUE,i,0,i,90,0.734794721,8018,,,18S020
0,39,3,same,TRUE,t,90,t,180,0.851496378,8018,,,18S020
0,40,3,same,TRUE,s,0,s,0,0.567261046,8018,,,18S020
0,41,3,same,TRUE,j,270,j,180,1.584936706,8018,,,18S020
0,42,3,same,TRUE,s,0,s,90,1.501965036,8018,,,18S020
0,43,2,same,FALSE,j,90,j,0,1.051695561,8018,,,18S020
0,44,2,diff,TRUE,t,90,i,90,0.818021296,8018,,,18S020
0,45,3,same,TRUE,j,90,j,180,0.885125351,8018,,,18S020
0,46,2,diff,TRUE,l,180,t,180,0.751527703,8018,,,18S020
0,47,2,same,FALSE,l,270,l,180,1.318448874,8018,,,18S020
0,48,2,diff,TRUE,i,90,l,90,0.735202789,8018,,,18S020
0,49,3,same,TRUE,l,90,l,90,0.651182687,8018,,,18S020
0,50,3,same,TRUE,t,90,t,90,0.801383493,8018,,,18S020
0,51,3,same,TRUE,t,0,t,270,0.918255087,8018,,,18S020
0,52,2,diff,TRUE,j,90,t,270,1.020677641,8018,,,18S020
0,53,2,diff,TRUE,j,270,l,270,2.102280696,8018,,,18S020
0,54,3,same,TRUE,t,90,t,0,1.268401631,8018,,,18S020
0,55,3,same,TRUE,j,270,j,0,1.117870796,8018,,,18S020
0,56,3,same,TRUE,t,270,t,0,0.784675309,8018,,,18S020
0,57,3,same,TRUE,z,90,z,0,1.585304295,8018,,,18S020
0,58,3,same,TRUE,l,90,l,270,1.385295105,8018,,,18S020
0,59,3,same,TRUE,j,180,j,270,0.951413269,8018,,,18S020
1,0,2,diff,TRUE,t,90,l,90,0.834745526,8018,,,18S020
1,1,3,same,TRUE,l,270,l,0,0.968354114,8018,,,18S020
1,2,3,same,TRUE,j,0,j,90,1.368880482,8018,,,18S020
1,3,2,same,FALSE,l,180,l,90,1.184788868,8018,,,18S020
1,4,2,diff,TRUE,j,180,i,0,0.717392565,8018,,,18S020
1,5,3,same,TRUE,z,0,z,90,1.11736062,8018,,,18S020
1,6,2,diff,TRUE,l,180,t,270,0.684659591,8018,,,18S020
1,7,2,diff,TRUE,j,270,s,0,0.718142695,8018,,,18S020
1,8,2,diff,TRUE,j,90,s,0,0.700180768,8018,,,18S020
1,9,2,diff,TRUE,l,0,j,180,1.53464185,8018,,,18S020
1,10,2,diff,TRUE,j,180,s,90,0.91823503,8018,,,18S020
1,11,2,diff,TRUE,l,180,j,180,1.001811691,8018,,,18S020
1,12,2,diff,TRUE,o,0,i,0,0.668805834,8018,,,18S020
1,13,2,diff,TRUE,t,0,l,0,0.534907331,8018,,,18S020
1,14,3,same,TRUE,l,270,l,270,0.634155414,8018,,,18S020
1,15,2,diff,TRUE,z,0,j,180,0.66806956,8018,,,18S020
1,16,3,same,TRUE,t,180,t,270,0.735355222,8018,,,18S020
1,17,2,diff,TRUE,s,90,j,0,0.600163957,8018,,,18S020
1,18,3,same,TRUE,j,0,j,180,1.268306816,8018,,,18S020
1,19,2,diff,TRUE,t,180,z,0,0.985328145,8018,,,18S020
1,20,3,same,TRUE,l,0,l,270,1.400783826,8018,,,18S020
1,21,3,same,TRUE,j,90,j,90,0.667893059,8018,,,18S020
1,22,3,same,TRUE,i,90,i,90,1.051566832,8018,,,18S020
1,23,2,diff,TRUE,z,90,s,90,0.951480368,8018,,,18S020
1,24,2,diff,TRUE,t,90,i,0,0.65126729,8018,,,18S020
1,25,3,same,TRUE,j,180,j,0,1.335161435,8018,,,18S020
1,26,2,diff,TRUE,z,90,t,270,1.151637615,8018,,,18S020
1,27,2,diff,TRUE,l,90,j,180,2.069019313,8018,,,18S020
1,28,3,same,TRUE,j,270,j,90,2.152704281,8018,,,18S020
1,29,2,diff,TRUE,z,90,t,90,0.868143297,8018,,,18S020
1,30,2,diff,TRUE,l,90,o,0,0.851719922,8018,,,18S020
1,31,3,same,TRUE,t,180,t,0,1.034087366,8018,,,18S020
1,32,3,same,TRUE,t,270,t,270,0.751444922,8018,,,18S020
1,33,3,same,TRUE,l,0,l,180,1.635229009,8018,,,18S020
1,34,2,diff,TRUE,z,90,j,180,0.751335521,8018,,,18S020
1,35,3,same,TRUE,l,180,l,0,1.202051354,8018,,,18S020
1,36,2,diff,TRUE,o,0,l,0,0.952288117,8018,,,18S020
1,37,3,same,TRUE,t,270,t,180,0.984765091,8018,,,18S020
1,38,3,same,TRUE,j,180,j,90,1.28502667,8018,,,18S020
1,39,2,same,FALSE,j,0,j,270,1.3534822,8018,,,18S020
1,40,2,diff,TRUE,j,180,l,90,1.73544019,8018,,,18S020
1,41,3,same,TRUE,t,180,t,90,1.385043846,8018,,,18S020
1,42,2,diff,TRUE,j,270,s,90,0.851238919,8018,,,18S020
1,43,2,diff,TRUE,l,90,i,90,0.717973123,8018,,,18S020
1,44,3,same,TRUE,j,270,j,270,0.684881677,8018,,,18S020
1,45,2,diff,TRUE,z,0,i,90,0.53336805,8018,,,18S020
1,46,2,diff,TRUE,z,0,t,180,1.401802356,8018,,,18S020
1,47,3,same,TRUE,z,0,z,0,0.751698734,8018,,,18S020
1,48,2,diff,TRUE,t,0,j,270,0.550530981,8018,,,18S020
1,49,3,same,TRUE,t,0,t,90,0.784683696,8018,,,18S020
1,50,2,diff,TRUE,i,90,l,0,0.734858174,8018,,,18S020
1,51,2,diff,TRUE,l,270,z,90,0.766527398,8018,,,18S020
1,52,2,diff,TRUE,t,270,i,0,0.734552578,8018,,,18S020
1,53,3,same,TRUE,t,270,t,90,0.551656724,8018,,,18S020
1,54,2,diff,TRUE,t,270,j,270,1.235852088,8018,,,18S020
1,55,2,diff,TRUE,o,0,j,0,0.768088925,8018,,,18S020
1,56,2,diff,TRUE,s,90,l,270,0.751365788,8018,,,18S020
1,57,2,diff,TRUE,t,270,j,0,0.935706839,8018,,,18S020
1,58,2,diff,TRUE,t,0,z,0,0.868159343,8018,,,18S020
1,59,3,same,TRUE,t,0,t,0,0.701354648,8018,,,18S020
1,60,2,diff,TRUE,j,270,t,90,1.269007716,8018,,,18S020
2,0,2,diff,TRUE,t,90,s,90,0.733642357,8018,,,18S020
2,1,2,diff,TRUE,s,90,t,90,0.784613314,8018,,,18S020
2,2,2,diff,TRUE,s,0,l,90,0.784938237,8018,,,18S020
2,3,2,diff,TRUE,l,90,t,270,0.733306129,8018,,,18S020
2,4,2,diff,TRUE,l,180,t,90,0.801489613,8018,,,18S020
2,5,2,diff,TRUE,o,0,t,90,0.518239625,8018,,,18S020
2,6,2,diff,TRUE,i,0,s,0,0.503025138,8018,,,18S020
2,7,2,diff,TRUE,t,180,i,0,0.434257449,8018,,,18S020
2,8,2,diff,TRUE,i,0,o,0,0.584816729,8018,,,18S020
2,9,3,same,TRUE,t,0,t,180,0.818222595,8018,,,18S020
2,10,2,diff,TRUE,l,270,t,270,0.66814286,8018,,,18S020
2,11,3,same,TRUE,t,270,t,0,0.767935762,8018,,,18S020
2,12,2,diff,TRUE,i,90,t,270,0.617912551,8018,,,18S020
2,13,2,diff,TRUE,t,180,z,90,1.001442278,8018,,,18S020
2,14,2,diff,TRUE,j,0,z,0,0.58459282,8018,,,18S020
2,15,3,same,TRUE,s,90,s,0,0.784653064,8018,,,18S020
2,16,3,same,TRUE,o,0,o,0,0.801575675,8018,,,18S020
2,17,3,same,TRUE,l,90,l,90,0.784318659,8018,,,18S020
2,18,2,diff,TRUE,j,180,z,90,0.918108854,8018,,,18S020
2,19,2,diff,TRUE,j,90,t,0,0.934941392,8018,,,18S020
2,20,2,diff,TRUE,o,0,j,270,0.65165749,8018,,,18S020
2,21,2,diff,TRUE,o,0,z,0,0.50153217,8018,,,18S020
2,22,3,same,TRUE,z,90,z,0,0.950635058,8018,,,18S020
2,23,3,same,TRUE,j,0,j,90,1.268312651,8018,,,18S020
2,24,2,diff,TRUE,s,90,l,90,0.784712505,8018,,,18S020
2,25,2,diff,TRUE,t,180,i,90,0.634758217,8018,,,18S020
2,26,2,diff,TRUE,t,90,z,90,0.767964571,8018,,,18S020
2,27,2,diff,TRUE,l,180,j,90,1.585229902,8018,,,18S020
2,28,2,diff,TRUE,z,90,j,90,0.75166482,8018,,,18S020
2,29,2,diff,TRUE,t,90,j,0,0.718506274,8018,,,18S020
2,30,3,same,TRUE,l,90,l,180,1.335124238,8018,,,18S020
2,31,3,same,TRUE,l,270,l,90,1.468765282,8018,,,18S020
2,32,2,diff,TRUE,j,0,l,90,1.334918928,8018,,,18S020
2,33,2,diff,TRUE,s,90,t,0,1.119945781,8018,,,18S020
2,34,2,diff,TRUE,s,90,z,0,1.251481572,8018,,,18S020
2,35,3,same,TRUE,l,180,l,90,1.30212943,8018,,,18S020
2,36,2,diff,TRUE,t,90,o,0,0.783300495,8018,,,18S020
2,37,2,diff,TRUE,i,90,j,90,0.767991192,8018,,,18S020
2,38,3,same,TRUE,l,90,l,0,1.501867304,8018,,,18S020
2,39,2,diff,TRUE,z,0,l,180,0.801073522,8018,,,18S020
2,40,2,diff,TRUE,j,90,s,90,0.818129239,8018,,,18S020
2,41,2,diff,TRUE,l,180,i,0,0.584910449,8018,,,18S020
2,42,2,diff,TRUE,l,270,s,0,0.650276841,8018,,,18S020
2,43,3,same,TRUE,i,0,i,0,0.734736738,8018,,,18S020
2,44,2,diff,TRUE,t,0,l,180,0.601092412,8018,,,18S020
2,45,2,diff,TRUE,o,0,l,180,0.536199729,8018,,,18S020
2,46,3,same,TRUE,j,270,j,0,1.034795195,8018,,,18S020
2,47,3,same,TRUE,i,90,i,90,0.584969161,8018,,,18S020
2,48,3,same,TRUE,s,0,s,90,1.469076347,8018,,,18S020
2,49,3,same,TRUE,t,270,t,270,0.601156959,8018,,,18S020
2,50,3,same,TRUE,j,270,j,270,0.734896099,8018,,,18S020
2,51,3,same,TRUE,t,0,t,270,0.969290592,8018,,,18S020
2,52,2,diff,TRUE,j,90,l,180,2.903391415,8018,,,18S020
2,53,3,same,TRUE,j,90,j,180,1.034952004,8018,,,18S020
2,54,3,same,TRUE,l,270,l,0,1.735448578,8018,,,18S020
2,55,2,diff,TRUE,l,0,t,90,0.851764776,8018,,,18S020
2,56,3,same,TRUE,j,90,j,0,1.369324653,8018,,,18S020
2,57,2,diff,TRUE,t,180,j,0,0.73486182,8018,,,18S020
2,58,2,diff,TRUE,z,90,l,270,0.901240214,8018,,,18S020
2,59,3,same,TRUE,j,0,j,270,1.368712733,8018,,,18S020
3,0,3,same,TRUE,j,180,j,180,0.735086458,8018,,,18S020
3,1,2,diff,TRUE,t,270,l,90,0.534518591,8018,,,18S020
3,2,3,same,TRUE,l,270,l,180,0.784915992,8018,,,18S020
3,3,3,same,TRUE,j,0,j,180,0.851626201,8018,,,18S020
3,4,3,same,TRUE,t,90,t,270,0.751226848,8018,,,18S020
3,5,2,diff,TRUE,t,270,o,0,0.667950313,8018,,,18S020
3,6,3,same,TRUE,l,0,l,90,1.034755445,8018,,,18S020
3,7,2,diff,TRUE,o,0,s,90,0.551231516,8018,,,18S020
3,8,2,same,FALSE,j,90,j,270,2.502732306,8018,,,18S020
3,9,3,same,TRUE,t,90,t,180,0.834361162,8018,,,18S020
3,10,3,same,TRUE,j,180,j,90,1.285377485,8018,,,18S020
3,11,2,diff,TRUE,l,0,z,0,0.834708694,8018,,,18S020
3,12,2,diff,TRUE,z,90,t,0,0.901993262,8018,,,18S020
3,13,3,same,TRUE,t,180,t,180,0.666857026,8018,,,18S020
3,14,2,diff,TRUE,j,270,l,90,1.001627532,8018,,,18S020
3,15,2,diff,TRUE,j,90,l,0,1.652013774,8018,,,18S020
3,16,3,same,TRUE,l,0,l,0,0.951535434,8018,,,18S020
3,17,2,diff,TRUE,t,180,j,270,0.618040551,8018,,,18S020
3,18,2,same,FALSE,j,270,j,180,0.401471233,8018,,,18S020
3,19,2,diff,TRUE,t,90,z,0,0.916855111,8018,,,18S020
3,20,2,diff,TRUE,l,0,t,180,0.634637146,8018,,,18S020
3,21,2,diff,TRUE,j,0,t,90,0.518010976,8018,,,18S020
3,22,3,same,TRUE,t,90,t,0,0.800138867,8018,,,18S020
3,23,2,same,FALSE,z,0,z,90,0.517939865,8018,,,18S020
3,24,2,diff,TRUE,s,90,j,180,0.583906142,8018,,,18S020
3,25,2,diff,TRUE,l,0,i,90,0.58705144,8018,,,18S020
3,26,2,diff,TRUE,s,90,o,0,0.417680546,8018,,,18S020
3,27,3,same,TRUE,t,0,t,90,0.517701369,8018,,,18S020
3,28,2,diff,TRUE,i,0,z,0,0.38429955,8018,,,18S020
3,29,3,same,TRUE,z,90,z,90,0.500792615,8018,,,18S020
3,30,3,same,TRUE,t,180,t,0,0.767898566,8018,,,18S020
3,31,3,same,TRUE,t,270,t,90,0.451622773,8018,,,18S020
3,32,3,same,TRUE,z,0,z,0,0.483557479,8018,,,18S020
3,33,3,same,TRUE,l,0,l,180,0.801400633,8018,,,18S020
3,34,2,diff,TRUE,j,180,t,180,0.701356836,8018,,,18S020
3,35,3,same,TRUE,t,180,t,90,0.803218159,8018,,,18S020
3,36,3,same,TRUE,j,90,j,90,0.651452179,8018,,,18S020
3,37,3,same,TRUE,l,270,l,270,0.484911507,8018,,,18S020
3,38,3,same,TRUE,t,180,t,270,0.618126613,8018,,,18S020
3,39,2,diff,TRUE,j,0,i,0,0.451044768,8018,,,18S020
3,40,2,diff,TRUE,i,90,j,0,0.618148494,8018,,,18S020
3,41,3,same,TRUE,j,0,j,0,0.584471019,8018,,,18S020
3,42,3,same,TRUE,t,0,t,0,0.601082201,8018,,,18S020
3,43,2,diff,TRUE,l,90,i,0,0.50119813,8018,,,18S020
3,44,3,same,TRUE,j,180,j,0,1.18508097,8018,,,18S020
3,45,3,same,TRUE,t,90,t,90,0.550729727,8018,,,18S020
3,46,3,same,TRUE,s,90,s,90,0.551242821,8018,,,18S020
3,47,2,diff,TRUE,l,90,t,180,0.867964973,8018,,,18S020
3,48,3,same,TRUE,l,180,l,270,0.766412891,8018,,,18S020
3,49,2,diff,TRUE,s,90,l,180,0.501072683,8018,,,18S020
3,50,3,same,TRUE,l,0,l,270,0.751771669,8018,,,18S020
3,51,3,same,TRUE,l,180,l,180,0.553121247,8018,,,18S020
3,52,3,same,TRUE,t,270,t,180,0.567884271,8018,,,18S020
3,53,3,same,TRUE,i,90,i,0,0.534486135,8018,,,18S020
3,54,3,same,TRUE,j,180,j,270,0.818593102,8018,,,18S020
3,55,3,same,TRUE,j,270,j,90,1.23497651,8018,,,18S020
3,56,2,diff,TRUE,i,0,s,90,0.734928191,8018,,,18S020
3,57,3,same,TRUE,s,0,s,0,0.751368706,8018,,,18S020
3,58,3,same,TRUE,i,0,i,90,0.834961048,8018,,,18S020
3,59,3,same,TRUE,l,180,l,0,1.051782353,8018,,,18S020
3,60,3,same,TRUE,l,90,l,270,1.303672723,8018,,,18S020
4,0,2,diff,TRUE,l,90,z,90,0.801193499,8018,,,18S020
4,1,2,diff,TRUE,s,0,l,0,0.470067162,8018,,,18S020
4,2,2,same,FALSE,z,90,z,90,0.351108913,8018,,,18S020
4,3,3,same,TRUE,j,180,j,0,0.518351944,8018,,,18S020
4,4,2,diff,TRUE,s,0,i,90,0.517145609,8018,,,18S020
4,5,3,same,TRUE,l,90,l,180,0.584732125,8018,,,18S020
4,6,2,diff,TRUE,i,0,l,90,0.484383826,8018,,,18S020
4,7,2,diff,TRUE,j,180,t,90,0.518214463,8018,,,18S020
4,8,2,diff,TRUE,l,90,t,90,0.416690826,8018,,,18S020
4,9,2,diff,TRUE,l,180,o,0,0.367654454,8018,,,18S020
4,10,2,same,FALSE,t,270,t,90,0.251413378,8018,,,18S020
4,11,3,same,TRUE,l,90,l,90,0.668074301,8018,,,18S020
4,12,3,same,TRUE,j,0,j,270,0.717943584,8018,,,18S020
4,13,3,same,TRUE,l,270,l,270,0.550655334,8018,,,18S020
4,14,2,diff,TRUE,l,270,t,90,0.467787596,8018,,,18S020
4,15,3,same,TRUE,j,0,j,180,0.70166389,8018,,,18S020
4,16,3,diff,FALSE,j,0,l,180,0.618368026,8018,,,18S020
4,17,2,diff,TRUE,l,270,o,0,0.56841341,8018,,,18S020
4,18,3,same,TRUE,l,270,l,90,0.850379387,8018,,,18S020
4,19,2,diff,TRUE,j,270,t,180,0.434422281,8018,,,18S020
4,20,2,diff,TRUE,t,0,z,90,0.551166969,8018,,,18S020
4,21,2,same,FALSE,t,90,t,270,0.469358604,8018,,,18S020
4,22,2,diff,TRUE,i,90,j,180,0.417831521,8018,,,18S020
4,23,2,diff,TRUE,l,0,s,0,0.534110158,8018,,,18S020
4,24,3,same,TRUE,l,0,l,90,0.70137981,8018,,,18S020
4,25,2,diff,TRUE,j,180,t,0,0.818056669,8018,,,18S020
4,26,3,same,TRUE,l,0,l,270,0.651158983,8018,,,18S020
4,27,2,diff,TRUE,s,0,j,0,0.584410484,8018,,,18S020
4,28,2,diff,TRUE,j,90,o,0,0.584624546,8018,,,18S020
4,29,2,same,FALSE,l,90,l,0,0.41783772,8018,,,18S020
4,30,2,diff,TRUE,t,270,i,90,0.518064583,8018,,,18S020
4,31,3,same,TRUE,l,180,l,90,0.899760739,8018,,,18S020
4,32,3,same,TRUE,j,270,j,270,0.651275313,8018,,,18S020
4,33,3,same,TRUE,j,270,j,90,1.018979728,8018,,,18S020
4,34,3,same,TRUE,l,90,l,270,1.100330794,8018,,,18S020
4,35,2,diff,TRUE,z,90,i,0,0.901305125,8018,,,18S020
4,36,3,same,TRUE,l,180,l,270,0.668327019,8018,,,18S020
4,37,2,diff,TRUE,t,0,l,270,0.600146088,8018,,,18S020
4,38,3,same,TRUE,i,90,i,0,0.56787406,8018,,,18S020
4,39,3,same,TRUE,j,90,j,270,0.701742294,8018,,,18S020
4,40,2,same,FALSE,i,0,i,0,0.569844383,8018,,,18S020
4,41,2,same,FALSE,t,180,t,0,0.568105262,8018,,,18S020
4,42,3,same,TRUE,t,180,t,90,0.785145006,8018,,,18S020
4,43,3,same,TRUE,j,90,j,90,0.851538315,8018,,,18S020
4,44,2,diff,TRUE,i,0,j,270,0.451033827,8018,,,18S020
4,45,3,diff,FALSE,l,90,j,90,0.634512793,8018,,,18S020
4,46,2,diff,TRUE,t,180,l,180,0.651340225,8018,,,18S020
4,47,3,same,TRUE,l,180,l,180,0.501337435,8018,,,18S020
4,48,2,diff,TRUE,t,270,z,0,0.484699268,8018,,,18S020
4,49,2,diff,TRUE,t,180,l,90,0.551520336,8018,,,18S020
4,50,3,same,TRUE,s,0,s,90,0.616285384,8018,,,18S020
4,51,3,same,TRUE,l,270,l,0,0.701104847,8018,,,18S020
4,52,2,diff,TRUE,s,90,t,270,0.568332088,8018,,,18S020
4,53,2,diff,TRUE,o,0,z,90,0.534160118,8018,,,18S020
4,54,3,same,TRUE,l,0,l,0,0.517723979,8018,,,18S020
4,55,2,same,FALSE,t,180,t,270,0.584177823,8018,,,18S020
4,56,2,diff,TRUE,l,0,z,90,0.517523409,8018,,,18S020
4,57,2,diff,TRUE,l,270,i,90,0.200925976,8018,,,18S020
4,58,2,diff,TRUE,z,0,s,0,0.234178242,8018,,,18S020
4,59,2,diff,TRUE,j,270,z,0,0.451522123,8018,,,18S020
5,0,2,same,FALSE,s,90,s,90,0.301357055,8018,,,18S020
5,1,3,diff,FALSE,i,0,l,270,0.400576328,8018,,,18S020
5,2,2,same,FALSE,t,90,t,0,0.484472077,8018,,,18S020
5,3,3,same,TRUE,j,270,j,0,0.634943835,8018,,,18S020
5,4,3,diff,FALSE,z,90,l,180,0.48474631,8018,,,18S020
5,5,2,diff,TRUE,t,180,j,180,1.01862709,8018,,,18S020
5,6,3,same,TRUE,s,0,s,0,0.618260083,8018,,,18S020
5,7,3,diff,FALSE,z,90,t,180,0.551247197,8018,,,18S020
5,8,3,diff,FALSE,l,0,j,270,0.617945736,8018,,,18S020
5,9,3,same,TRUE,j,180,j,180,0.617815548,8018,,,18S020
5,10,2,diff,TRUE,o,0,j,90,0.48449104,8018,,,18S020
5,11,2,diff,TRUE,j,90,l,270,0.934387455,8018,,,18S020
5,12,2,diff,TRUE,l,180,z,0,0.667837264,8018,,,18S020
5,13,2,diff,TRUE,s,0,t,270,0.567208533,8018,,,18S020
5,14,3,same,TRUE,s,90,s,0,0.800074685,8018,,,18S020
5,15,3,same,TRUE,t,180,t,180,0.667985321,8018,,,18S020
5,16,2,diff,TRUE,t,90,s,0,0.751989378,8018,,,18S020
5,17,2,diff,TRUE,s,90,j,270,0.64931046,8018,,,18S020
5,18,2,same,FALSE,j,270,j,180,1.418420466,8018,,,18S020
5,19,3,same,TRUE,j,90,j,0,2.168995645,8018,,,18S020
5,20,2,diff,TRUE,j,90,i,0,0.768010885,8018,,,18S020
5,21,2,diff,TRUE,i,0,j,0,0.65125708,8018,,,18S020
5,22,3,same,TRUE,t,270,t,0,0.634659755,8018,,,18S020
5,23,2,same,FALSE,i,0,i,90,0.534353394,8018,,,18S020
5,24,2,same,FALSE,j,180,j,270,0.551336542,8018,,,18S020
5,25,3,same,TRUE,z,0,z,90,0.768236617,8018,,,18S020
5,26,2,diff,TRUE,o,0,t,270,0.483405046,8018,,,18S020
5,27,2,same,FALSE,o,0,o,0,0.451132654,8018,,,18S020
5,28,2,diff,TRUE,t,270,j,180,0.918362666,8018,,,18S020
5,29,2,diff,TRUE,l,90,z,0,0.786332379,8018,,,18S020
5,30,2,diff,TRUE,l,270,t,180,0.751476284,8018,,,18S020
5,31,3,diff,FALSE,l,90,j,270,0.551179003,8018,,,18S020
5,32,3,same,TRUE,t,270,t,180,0.854448034,8018,,,18S020
5,33,3,same,TRUE,j,180,j,90,1.135333852,8018,,,18S020
5,34,2,diff,TRUE,i,0,t,270,0.767064196,8018,,,18S020
5,35,2,diff,TRUE,z,90,j,0,1.019978929,8018,,,18S020
5,36,2,diff,TRUE,t,0,s,90,0.884653829,8018,,,18S020
5,37,3,same,TRUE,l,180,l,0,1.21865269,8018,,,18S020
5,38,2,diff,TRUE,l,90,s,0,0.802612438,8018,,,18S020
5,39,3,same,TRUE,t,0,t,180,0.718046057,8018,,,18S020
5,40,3,same,TRUE,t,0,t,0,0.585057412,8018,,,18S020
5,41,2,diff,TRUE,z,0,t,0,1.203121302,8018,,,18S020
5,42,3,same,TRUE,j,0,j,0,0.651138561,8018,,,18S020
5,43,3,same,TRUE,t,0,t,270,0.635019687,8018,,,18S020
5,44,3,same,TRUE,t,270,t,270,0.517740754,8018,,,18S020
5,45,3,same,TRUE,t,90,t,90,0.618058784,8018,,,18S020
5,46,2,diff,TRUE,z,90,l,90,0.684960081,8018,,,18S020
5,47,2,diff,TRUE,o,0,l,90,0.651377786,8018,,,18S020
5,48,2,diff,TRUE,j,270,t,0,0.734792168,8018,,,18S020
5,49,2,diff,TRUE,s,0,z,0,0.851011364,8018,,,18S020
5,50,3,same,TRUE,i,90,i,90,0.867972631,8018,,,18S020
5,51,3,same,TRUE,z,90,z,0,0.717942126,8018,,,18S020
5,52,3,same,TRUE,z,0,z,0,0.584535931,8018,,,18S020
5,53,3,same,TRUE,l,270,l,180,0.984811404,8018,,,18S020
5,54,3,same,TRUE,t,0,t,90,0.7346948,8018,,,18S020
5,55,3,same,TRUE,j,0,j,90,0.684732161,8018,,,18S020
5,56,2,diff,TRUE,j,0,i,90,0.718080337,8018,,,18S020
5,57,3,diff,FALSE,s,0,l,270,0.867580608,8018,,,18S020
5,58,3,same,TRUE,l,0,l,180,0.83459127,8018,,,18S020
5,59,3,same,TRUE,t,90,t,180,0.834974905,8018,,,18S020
5,60,3,same,TRUE,j,90,j,180,0.900877365,8018,,,18S020
6,0,2,diff,TRUE,t,270,l,0,0.751088638,8018,,,18S020
6,1,2,diff,TRUE,t,90,l,0,0.934842566,8018,,,18S020
6,2,2,diff,TRUE,z,0,l,270,0.567859473,8018,,,18S020
6,3,3,same,TRUE,t,90,t,180,0.701890351,8018,,,18S020
6,4,2,same,FALSE,l,90,l,180,0.551108257,8018,,,18S020
6,5,2,diff,TRUE,j,90,t,90,0.734787427,8018,,,18S020
6,6,2,diff,TRUE,j,180,o,0,0.551645419,8018,,,18S020
6,7,3,same,TRUE,j,90,j,180,0.901617649,8018,,,18S020
6,8,2,diff,TRUE,t,270,s,90,0.817971336,8018,,,18S020
6,9,2,diff,TRUE,t,270,s,0,0.784844881,8018,,,18S020
6,10,2,diff,TRUE,o,0,l,270,0.518282657,8018,,,18S020
6,11,3,same,TRUE,j,180,j,180,0.633767403,8018,,,18S020
6,12,3,same,TRUE,j,180,j,90,0.818325068,8018,,,18S020
6,13,2,diff,TRUE,j,90,z,90,0.668284352,8018,,,18S020
6,14,3,same,TRUE,i,0,i,0,0.632411916,8018,,,18S020
6,15,3,same,TRUE,s,90,s,0,0.751272432,8018,,,18S020
6,16,2,diff,TRUE,j,180,t,270,0.668393389,8018,,,18S020
6,17,2,diff,TRUE,i,0,t,0,0.603885801,8018,,,18S020
6,18,2,diff,TRUE,s,0,j,180,0.634463197,8018,,,18S020
6,19,3,same,TRUE,t,0,t,180,0.718412918,8018,,,18S020
6,20,2,diff,TRUE,j,0,t,270,0.734804567,8018,,,18S020
6,21,3,same,TRUE,t,180,t,90,0.718020895,8018,,,18S020
6,22,3,diff,FALSE,i,0,j,180,0.83470833,8018,,,18S020
6,23,3,same,TRUE,t,0,t,0,0.701144597,8018,,,18S020
6,24,2,diff,TRUE,l,0,o,0,0.61800846,8018,,,18S020
6,25,2,diff,TRUE,l,0,t,0,0.668320455,8018,,,18S020
6,26,3,same,TRUE,i,90,i,0,0.701254363,8018,,,18S020
6,27,3,same,TRUE,l,90,l,90,0.63043831,8018,,,18S020
6,28,3,diff,FALSE,l,270,j,0,0.668017777,8018,,,18S020
6,29,3,same,TRUE,j,270,j,0,0.668096182,8018,,,18S020
6,30,2,diff,TRUE,z,90,o,0,0.60004872,8018,,,18S020
6,31,3,same,TRUE,j,90,j,90,0.918316717,8018,,,18S020
6,32,3,same,TRUE,i,90,i,90,0.534844972,8018,,,18S020
6,33,3,same,TRUE,j,270,j,180,0.616270067,8018,,,18S020
6,34,2,diff,TRUE,z,0,o,0,0.451335776,8018,,,18S020
6,35,3,same,TRUE,t,90,t,0,0.585036261,8018,,,18S020
6,36,3,same,TRUE,t,270,t,270,0.517748777,8018,,,18S020
6,37,3,same,TRUE,t,270,t,90,0.651338037,8018,,,18S020
6,38,2,diff,TRUE,j,270,l,180,1.11830038,8018,,,18S020
6,39,3,diff,FALSE,l,270,j,90,0.734825353,8018,,,18S020
6,40,3,same,TRUE,l,180,l,0,1.285462089,8018,,,18S020
6,41,2,diff,TRUE,i,90,t,180,0.617639776,8018,,,18S020
6,42,3,same,TRUE,j,180,j,0,0.634676166,8018,,,18S020
6,43,2,diff,TRUE,z,90,l,0,0.684753677,8018,,,18S020
6,44,3,same,TRUE,t,180,t,270,0.801308371,8018,,,18S020
6,45,3,same,TRUE,l,180,l,180,0.684618019,8018,,,18S020
6,46,2,diff,TRUE,z,0,l,0,0.568011541,8018,,,18S020
6,47,3,same,TRUE,j,0,j,270,0.568123131,8018,,,18S020
6,48,2,diff,TRUE,s,0,o,0,0.568110732,8018,,,18S020
6,49,3,same,TRUE,t,180,t,180,0.617516882,8018,,,18S020
6,50,3,same,TRUE,j,270,j,270,0.601017289,8018,,,18S020
6,51,3,same,TRUE,t,180,t,0,0.667850757,8018,,,18S020
6,52,2,diff,TRUE,i,90,o,0,0.499438952,8018,,,18S020
6,53,3,diff,FALSE,z,0,t,90,0.567780704,8018,,,18S020
6,54,2,diff,TRUE,j,180,i,90,0.534911707,8018,,,18S020
6,55,3,same,TRUE,t,270,t,0,0.617912186,8018,,,18S020
6,56,2,diff,TRUE,t,90,l,270,0.684521745,8018,,,18S020
6,57,2,diff,TRUE,o,0,s,0,0.517927101,8018,,,18S020
6,58,3,same,TRUE,l,270,l,180,0.601338566,8018,,,18S020
6,59,2,same,FALSE,t,90,t,270,0.484426493,8018,,,18S020
7,0,3,same,TRUE,l,270,l,0,0.667898894,8018,,,18S020
7,1,3,diff,FALSE,l,270,j,180,0.584577139,8018,,,18S020
7,2,3,same,TRUE,s,0,s,90,0.769668684,8018,,,18S020
7,3,3,same,TRUE,j,0,j,90,0.617761941,8018,,,18S020
7,4,2,diff,TRUE,t,0,i,0,0.518124024,8018,,,18S020
7,5,3,same,TRUE,l,90,l,270,0.617706876,8018,,,18S020
7,6,2,diff,TRUE,i,90,j,270,0.501529253,8018,,,18S020
7,7,3,same,TRUE,l,180,l,90,0.735187472,8018,,,18S020
7,8,3,same,TRUE,t,90,t,90,0.551356234,8018,,,18S020
7,9,2,diff,TRUE,t,0,j,180,0.618067172,8018,,,18S020
7,10,3,same,TRUE,j,90,j,270,0.56797398,8018,,,18S020
7,11,2,diff,TRUE,i,90,l,180,0.53493067,8018,,,18S020
7,12,2,diff,TRUE,t,0,o,0,0.533105851,8018,,,18S020
7,13,3,same,TRUE,z,90,z,90,0.551237351,8018,,,18S020
7,14,2,diff,TRUE,j,0,t,180,0.61831442,8018,,,18S020
7,15,3,same,TRUE,l,0,l,180,0.569818856,8018,,,18S020
7,16,2,same,FALSE,o,0,o,0,0.501286381,8018,,,18S020
7,17,3,same,TRUE,j,180,j,270,0.734854527,8018,,,18S020
7,18,2,diff,TRUE,j,270,i,90,0.584568387,8018,,,18S020
7,19,2,diff,TRUE,i,0,j,90,0.568006436,8018,,,18S020
7,20,2,diff,TRUE,l,270,z,0,0.584483783,8018,,,18S020
7,21,2,diff,TRUE,l,0,t,270,0.567755177,8018,,,18S020
7,22,3,same,TRUE,t,270,t,180,0.751140786,8018,,,18S020
7,23,3,same,TRUE,l,0,l,90,0.634555459,8018,,,18S020
7,24,2,diff,TRUE,t,90,j,90,0.63470461,8018,,,18S020
7,25,2,diff,TRUE,i,0,t,180,1.000434325,8018,,,18S020
7,26,3,same,TRUE,l,270,l,270,0.55121073,8018,,,18S020
7,27,3,same,TRUE,z,0,z,0,0.568350322,8018,,,18S020
7,28,2,diff,TRUE,i,90,s,90,0.466341671,8018,,,18S020
7,29,3,same,TRUE,l,90,l,0,0.651192897,8018,,,18S020
7,30,2,diff,TRUE,z,0,t,270,0.517879329,8018,,,18S020
7,31,3,same,TRUE,z,90,z,0,0.651234105,8018,,,18S020
7,32,3,same,TRUE,i,0,i,90,0.684858702,8018,,,18S020
7,33,3,same,TRUE,j,90,j,0,1.501970141,8018,,,18S020
7,34,2,diff,TRUE,s,0,i,0,0.584595008,8018,,,18S020
7,35,2,diff,TRUE,s,0,t,180,1.234892635,8018,,,18S020
7,36,2,diff,TRUE,l,270,t,0,0.668401412,8018,,,18S020
7,37,3,diff,FALSE,j,0,l,0,0.668151612,8018,,,18S020
7,38,2,diff,TRUE,s,0,l,180,0.584569845,8018,,,18S020
7,39,3,same,TRUE,t,0,t,270,0.685090998,8018,,,18S020
7,40,2,diff,TRUE,j,90,i,90,0.61778528,8018,,,18S020
7,41,3,same,TRUE,s,90,s,90,0.568087758,8018,,,18S020
7,42,3,same,TRUE,l,0,l,0,0.484364863,8018,,,18S020
7,43,3,same,TRUE,l,0,l,270,0.651382527,8018,,,18S020
7,44,2,diff,TRUE,i,0,z,90,0.500796991,8018,,,18S020
7,45,2,diff,TRUE,i,90,t,0,0.500960729,8018,,,18S020
7,46,2,diff,TRUE,l,270,s,90,0.701124904,8018,,,18S020
7,47,3,same,TRUE,l,180,l,270,0.733059975,8018,,,18S020
7,48,2,same,FALSE,s,0,s,0,0.501225116,8018,,,18S020
7,49,2,same,FALSE,j,0,j,180,0.751740671,8018,,,18S020
7,50,3,same,TRUE,l,270,l,90,0.736669865,8018,,,18S020
7,51,2,diff,TRUE,s,90,t,180,0.568014823,8018,,,18S020
7,52,3,same,TRUE,t,0,t,90,0.534961667,8018,,,18S020
7,53,2,diff,TRUE,o,0,j,180,0.584719726,8018,,,18S020
7,54,2,diff,TRUE,l,270,i,0,0.551207448,8018,,,18S020
7,55,2,diff,TRUE,t,90,j,270,0.601129973,8018,,,18S020
7,56,3,same,TRUE,j,0,j,0,0.518088286,8018,,,18S020
7,57,2,same,FALSE,z,0,z,90,0.550798286,8018,,,18S020
7,58,3,same,TRUE,j,270,j,90,0.717895812,8018,,,18S020
7,59,3,diff,FALSE,l,90,j,0,0.685017335,8018,,,18S020
7,60,3,diff,FALSE,i,90,l,270,0.683210019,8018,,,18S020
8,0,2,diff,TRUE,t,0,s,0,0.551391972,8018,,,18S020
8,1,3,same,TRUE,s,90,s,0,0.618341405,8018,,,18S020
8,2,3,same,TRUE,i,0,i,0,0.501096022,8018,,,18S020
8,3,2,same,FALSE,l,270,l,180,0.40091839,8018,,,18S020
8,4,3,same,TRUE,l,90,l,180,0.601059227,8018,,,18S020
8,5,3,same,TRUE,t,0,t,0,0.550588599,8018,,,18S020
8,6,2,diff,TRUE,s,90,l,0,0.584349948,8018,,,18S020
8,7,3,same,TRUE,l,0,l,270,0.584487065,8018,,,18S020
8,8,2,diff,TRUE,l,180,z,90,0.434480628,8018,,,18S020
8,9,3,same,TRUE,s,0,s,90,0.536200094,8018,,,18S020
8,10,3,same,TRUE,j,180,j,270,0.534809235,8018,,,18S020
8,11,3,same,TRUE,l,180,l,180,0.568254777,8018,,,18S020
8,12,3,same,TRUE,l,0,l,0,0.434693597,8018,,,18S020
8,13,3,same,TRUE,t,270,t,270,0.55131612,8018,,,18S020
8,14,3,diff,FALSE,s,0,z,90,0.451500608,8018,,,18S020
8,15,2,diff,TRUE,z,0,j,0,0.618127343,8018,,,18S020
8,16,2,diff,TRUE,l,0,j,90,0.584240547,8018,,,18S020
8,17,2,same,FALSE,t,90,t,180,0.684680742,8018,,,18S020
8,18,2,diff,TRUE,j,0,z,90,0.53484169,8018,,,18S020
8,19,2,diff,TRUE,j,270,o,0,0.432996413,8018,,,18S020
8,20,3,same,TRUE,l,180,l,270,0.584671589,8018,,,18S020
8,21,3,same,TRUE,t,0,t,180,0.484189091,8018,,,18S020
8,22,2,diff,TRUE,o,0,i,90,0.467878035,8018,,,18S020
8,23,3,same,TRUE,j,90,j,270,0.534790272,8018,,,18S020
8,24,2,diff,TRUE,t,270,l,180,0.501368432,8018,,,18S020
8,25,3,same,TRUE,t,90,t,90,0.501149994,8018,,,18S020
8,26,3,same,TRUE,t,180,t,90,0.567882083,8018,,,18S020
8,27,3,diff,FALSE,j,180,s,0,0.467944405,8018,,,18S020
8,28,3,same,TRUE,j,90,j,90,0.468193841,8018,,,18S020
8,29,2,diff,TRUE,j,0,o,0,0.486264076,8018,,,18S020
8,30,2,diff,TRUE,l,180,i,90,0.451234397,8018,,,18S020
8,31,2,diff,TRUE,t,180,s,90,0.551481317,8018,,,18S020
8,32,2,diff,TRUE,l,0,i,0,0.517907044,8018,,,18S020
8,33,2,diff,TRUE,i,0,t,90,0.484464783,8018,,,18S020
8,34,3,diff,FALSE,j,180,l,180,0.618088323,8018,,,18S020
8,35,3,same,TRUE,l,270,l,270,0.551390513,8018,,,18S020
8,36,2,diff,TRUE,t,180,s,0,0.484338607,8018,,,18S020
8,37,2,same,FALSE,l,0,l,180,0.451425485,8018,,,18S020
8,38,3,same,TRUE,t,0,t,270,0.684545814,8018,,,18S020
8,39,3,diff,FALSE,j,90,l,90,0.619440527,8018,,,18S020
8,40,2,diff,TRUE,z,0,j,90,0.634781556,8018,,,18S020
8,41,3,diff,FALSE,j,0,l,270,0.801787185,8018,,,18S020
8,42,3,same,TRUE,j,0,j,270,0.769999807,8018,,,18S020
8,43,2,diff,TRUE,l,180,s,0,0.584589173,8018,,,18S020
8,44,2,diff,TRUE,t,180,l,270,0.884954684,8018,,,18S020
8,45,3,same,TRUE,t,0,t,90,0.601377586,8018,,,18S020
8,46,3,same,TRUE,j,180,j,0,0.517847603,8018,,,18S020
8,47,3,diff,FALSE,j,270,l,0,0.617833782,8018,,,18S020
8,48,2,diff,TRUE,j,90,z,0,0.501074142,8018,,,18S020
8,49,3,same,TRUE,t,90,t,270,0.551273818,8018,,,18S020
8,50,2,same,FALSE,l,180,l,90,0.551087471,8018,,,18S020
8,51,3,same,TRUE,j,270,j,270,0.585068352,8018,,,18S020
8,52,3,same,TRUE,l,180,l,0,0.58409249,8018,,,18S020
8,53,2,same,FALSE,o,0,o,0,0.501315555,8018,,,18S020
8,54,3,same,TRUE,j,270,j,0,0.668008296,8018,,,18S020
8,55,2,same,FALSE,j,90,j,0,0.451224186,8018,,,18S020
8,56,2,diff,TRUE,l,180,s,90,0.617909998,8018,,,18S020
8,57,2,diff,TRUE,l,90,t,0,0.634825317,8018,,,18S020
8,58,2,diff,TRUE,i,90,z,90,0.550339893,8018,,,18S020
8,59,2,diff,TRUE,s,90,j,90,0.551550969,8018,,,18S020
9,0,3,same,TRUE,j,180,j,90,0.567868954,8018,,,18S020
9,1,3,same,TRUE,j,0,j,0,0.467384633,8018,,,18S020
9,2,3,same,TRUE,l,270,l,90,0.651299382,8018,,,18S020
9,3,2,diff,TRUE,t,180,o,0,0.484998299,8018,,,18S020
9,4,3,same,TRUE,j,0,j,90,0.569563586,8018,,,18S020
9,5,2,diff,TRUE,j,270,z,90,0.617892859,8018,,,18S020
9,6,3,same,TRUE,l,90,l,90,0.468084439,8018,,,18S020
9,7,3,same,TRUE,j,180,j,180,0.417734883,8018,,,18S020
9,8,3,diff,FALSE,z,0,j,270,0.434540435,8018,,,18S020
9,9,3,diff,FALSE,j,180,l,0,0.685053073,8018,,,18S020
9,10,2,diff,TRUE,s,90,i,90,0.484527872,8018,,,18S020
9,11,2,same,FALSE,i,90,i,90,0.500844398,8018,,,18S020
9,12,2,diff,TRUE,s,0,t,90,0.66784164,8018,,,18S020
9,13,2,diff,TRUE,t,270,l,270,0.584964785,8018,,,18S020
9,14,3,same,TRUE,t,90,t,0,0.649227314,8018,,,18S020
9,15,2,diff,TRUE,t,0,i,90,0.484622686,8018,,,18S020
9,16,2,diff,TRUE,s,0,t,0,0.785173086,8018,,,18S020
9,17,2,same,FALSE,s,0,s,0,0.517710121,8018,,,18S020
9,18,3,same,TRUE,t,270,t,90,0.551302263,8018,,,18S020
9,19,2,diff,TRUE,t,270,j,90,0.584648615,8018,,,18S020
9,20,3,diff,FALSE,z,90,s,0,0.851769882,8018,,,18S020
9,21,2,diff,TRUE,t,180,l,0,0.600599011,8018,,,18S020
9,22,2,diff,TRUE,t,0,j,90,0.601231717,8018,,,18S020
9,23,2,diff,TRUE,t,0,j,0,0.517675478,8018,,,18S020
9,24,3,same,TRUE,j,270,j,90,0.767768378,8018,,,18S020
9,25,3,same,TRUE,z,0,z,0,0.48439659,8018,,,18S020
9,26,2,diff,TRUE,i,90,t,90,0.484820339,8018,,,18S020
9,27,2,same,FALSE,s,90,s,90,0.450395651,8018,,,18S020
9,28,2,diff,TRUE,i,0,l,0,0.501320296,8018,,,18S020
9,29,3,same,TRUE,z,90,z,0,0.551652348,8018,,,18S020
9,30,2,diff,TRUE,j,0,s,0,0.517703557,8018,,,18S020
9,31,3,same,TRUE,l,90,l,270,0.584505298,8018,,,18S020
9,32,3,same,TRUE,l,270,l,0,0.50104278,8018,,,18S020
9,33,3,diff,FALSE,l,270,j,270,0.667992979,8018,,,18S020
9,34,2,diff,TRUE,l,0,j,0,0.751254199,8018,,,18S020
9,35,3,diff,FALSE,s,0,j,90,0.634709715,8018,,,18S020
9,36,2,same,FALSE,i,0,i,90,0.568275199,8018,,,18S020
9,37,2,diff,TRUE,j,0,s,90,0.616870683,8018,,,18S020
9,38,2,diff,TRUE,z,90,i,90,0.584662837,8018,,,18S020
9,39,3,same,TRUE,l,0,l,90,0.584867053,8018,,,18S020
9,40,2,diff,TRUE,z,90,j,270,0.517015421,8018,,,18S020
9,41,3,same,TRUE,t,180,t,180,0.534359594,8018,,,18S020
9,42,3,same,TRUE,i,90,i,0,0.451391206,8018,,,18S020
9,43,2,diff,TRUE,l,0,s,90,0.451008665,8018,,,18S020
9,44,2,diff,TRUE,s,90,i,0,0.467870741,8018,,,18S020
9,45,2,diff,TRUE,z,0,l,90,0.53430854,8018,,,18S020
9,46,2,diff,TRUE,j,180,z,0,0.518018634,8018,,,18S020
9,47,2,diff,TRUE,j,270,i,0,0.516909301,8018,,,18S020
9,48,3,same,TRUE,j,0,j,180,0.767202042,8018,,,18S020
9,49,3,same,TRUE,j,90,j,180,0.568547245,8018,,,18S020
9,50,2,diff,TRUE,z,0,i,0,0.569310868,8018,,,18S020
9,51,3,same,TRUE,t,270,t,0,0.60111721,8018,,,18S020
9,52,3,same,TRUE,t,180,t,0,0.551665111,8018,,,18S020
9,53,3,diff,FALSE,j,180,l,270,0.534552505,8018,,,18S020
9,54,2,same,FALSE,z,0,z,90,0.65132345,8018,,,18S020
9,55,3,diff,FALSE,l,180,j,0,0.717712747,8018,,,18S020
9,56,3,same,TRUE,l,90,l,0,0.73486255,8018,,,18S020
9,57,3,same,TRUE,z,90,z,90,0.517869848,8018,,,18S020
9,58,3,same,TRUE,t,270,t,180,0.584593914,8018,,,18S020
9,59,3,same,TRUE,j,270,j,180,0.568216852,8018,,,18S020
9,60,3,same,TRUE,t,180,t,270,0.634038719,8018,,,18S020
0,0,3,same,TRUE,t,270,t,90,1.301902863,31490,,,18S025
0,1,2,diff,TRUE,t,0,l,270,0.951534578,31490,,,18S025
0,2,2,diff,TRUE,i,90,z,90,0.934831517,31490,,,18S025
0,3,3,same,TRUE,l,180,l,180,0.734742367,31490,,,18S025
0,4,2,diff,TRUE,z,0,l,180,0.934850215,31490,,,18S025
0,5,3,same,TRUE,l,180,l,0,1.351876486,31490,,,18S025
0,6,3,same,TRUE,s,90,s,0,0.918259676,31490,,,18S025
0,7,3,same,TRUE,l,90,l,270,1.985701645,31490,,,18S025
0,8,3,same,TRUE,j,270,j,0,0.901548936,31490,,,18S025
0,9,3,same,TRUE,j,180,j,270,1.085050552,31490,,,18S025
0,10,2,diff,TRUE,l,0,i,0,0.768090058,31490,,,18S025
0,11,2,same,FALSE,j,270,j,180,1.068371531,31490,,,18S025
0,12,3,same,TRUE,t,0,t,0,0.784846208,31490,,,18S025
0,13,3,same,TRUE,t,180,t,90,0.717987219,31490,,,18S025
0,14,2,diff,TRUE,j,90,l,270,0.968307423,31490,,,18S025
0,15,2,diff,TRUE,i,90,j,270,0.734992788,31490,,,18S025
0,16,2,diff,TRUE,j,180,i,0,0.634680597,31490,,,18S025
0,17,2,diff,TRUE,z,0,j,0,0.851654112,31490,,,18S025
0,18,3,same,TRUE,z,0,z,90,1.26850175,31490,,,18S025
0,19,3,same,TRUE,i,0,i,0,0.918393902,31490,,,18S025
0,20,3,same,TRUE,j,90,j,0,0.884762067,31490,,,18S025
0,21,2,diff,TRUE,l,0,s,90,0.968404586,31490,,,18S025
0,22,3,same,TRUE,t,180,t,270,0.66817253,31490,,,18S025
0,23,3,same,TRUE,t,90,t,90,0.668090392,31490,,,18S025
0,24,2,diff,TRUE,i,90,s,90,0.618092395,31490,,,18S025
0,25,3,same,TRUE,l,90,l,90,0.65135294,31490,,,18S025
0,26,2,diff,TRUE,j,270,i,0,0.70134693,31490,,,18S025
0,27,2,diff,TRUE,j,270,l,270,1.402038091,31490,,,18S025
0,28,3,same,TRUE,j,90,j,180,0.918376539,31490,,,18S025
0,29,2,diff,TRUE,s,90,l,270,0.734686941,31490,,,18S025
0,30,2,diff,TRUE,t,90,i,0,0.718063013,31490,,,18S025
0,31,3,same,TRUE,l,180,l,90,3.536800491,31490,,,18S025
0,32,2,diff,TRUE,j,180,t,270,0.75156129,31490,,,18S025
0,33,2,diff,TRUE,t,180,j,270,0.834813153,31490,,,18S025
0,34,2,diff,TRUE,j,180,s,90,0.784888947,31490,,,18S025
0,35,3,same,TRUE,z,90,z,90,0.668097404,31490,,,18S025
