Block_Number,Trial_Number,Subject_Key_Box,Correct_Response,Answered_Correctly,Left_Zoid,Left_Zoid_Orientation,Right_Zoid,Right_Zoid_Orientation,Response.rt.box,date,frameRate,SID,RIN
0,0,3,same,TRUE,l,180,l,0,2.65371497,2018_Apr_03_1538,59.95677375,18S051,661637493
0,1,3,same,TRUE,t,270,t,90,1.464819529,2018_Apr_03_1538,59.95677375,18S051,661637493
0,2,3,same,TRUE,t,180,t,270,1.671611257,2018_Apr_03_1538,59.95677375,18S051,661637493
0,3,3,same,TRUE,l,90,l,270,6.088314846,2018_Apr_03_1538,59.95677375,18S051,661637493
0,4,2,diff,TRUE,z,0,i,0,1.435108959,2018_Apr_03_1538,59.95677375,18S051,661637493
0,5,3,same,TRUE,j,180,j,180,1.168364033,2018_Apr_03_1538,59.95677375,18S051,661637493
0,6,3,same,TRUE,l,90,l,90,0.93472587,2018_Apr_03_1538,59.95677375,18S051,661637493
0,7,3,same,TRUE,t,180,t,180,0.817997592,2018_Apr_03_1538,59.95677375,18S051,661637493
0,8,3,same,TRUE,s,0,s,90,1.668528683,2018_Apr_03_1538,59.95677375,18S051,661637493
0,9,2,diff,TRUE,l,180,t,270,1.203433461,2018_Apr_03_1538,59.95677375,18S051,661637493
0,10,3,same,TRUE,l,270,l,0,3.937233721,2018_Apr_03_1538,59.95677375,18S051,661637493
0,11,2,diff,TRUE,t,270,s,0,1.352898724,2018_Apr_03_1538,59.95677375,18S051,661637493
0,12,2,diff,TRUE,t,90,l,180,1.451886796,2018_Apr_03_1538,59.95677375,18S051,661637493
0,13,2,diff,TRUE,j,90,t,270,0.868405132,2018_Apr_03_1538,59.95677375,18S051,661637493
0,14,2,diff,TRUE,z,90,l,90,0.966771072,2018_Apr_03_1538,59.95677375,18S051,661637493
0,15,2,diff,TRUE,l,180,s,0,1.15133129,2018_Apr_03_1538,59.95677375,18S051,661637493
0,16,3,same,TRUE,j,90,j,0,2.335995075,2018_Apr_03_1538,59.95677375,18S051,661637493
0,17,2,diff,TRUE,j,90,t,90,0.851407033,2018_Apr_03_1538,59.95677375,18S051,661637493
0,18,3,same,TRUE,j,270,j,0,3.352812662,2018_Apr_03_1538,59.95677375,18S051,661637493
0,19,3,same,TRUE,t,90,t,270,1.869031274,2018_Apr_03_1538,59.95677375,18S051,661637493
0,20,2,same,FALSE,j,180,j,270,4.48999759,2018_Apr_03_1538,59.95677375,18S051,661637493
0,21,2,same,FALSE,l,0,l,0,0.868434306,2018_Apr_03_1538,59.95677375,18S051,661637493
0,22,2,diff,TRUE,l,270,j,270,9.892207284,2018_Apr_03_1538,59.95677375,18S051,661637493
0,23,3,same,TRUE,t,0,t,90,1.034918089,2018_Apr_03_1538,59.95677375,18S051,661637493
0,24,3,same,TRUE,t,270,t,270,0.851547432,2018_Apr_03_1538,59.95677375,18S051,661637493
0,25,2,diff,TRUE,l,0,s,0,1.618716653,2018_Apr_03_1538,59.95677375,18S051,661637493
0,26,3,same,TRUE,z,0,z,90,3.087045787,2018_Apr_03_1538,59.95677375,18S051,661637493
0,27,2,diff,TRUE,t,270,z,0,0.851508047,2018_Apr_03_1538,59.95677375,18S051,661637493
0,28,2,diff,TRUE,s,90,l,270,2.454509518,2018_Apr_03_1538,59.95677375,18S051,661637493
0,29,3,same,TRUE,j,180,j,90,2.919716693,2018_Apr_03_1538,59.95677375,18S051,661637493
0,30,2,diff,TRUE,z,90,t,270,0.884923687,2018_Apr_03_1538,59.95677375,18S051,661637493
0,31,3,same,TRUE,l,90,l,180,1.685344081,2018_Apr_03_1538,59.95677375,18S051,661637493
0,32,2,diff,TRUE,j,0,t,180,0.768071056,2018_Apr_03_1538,59.95677375,18S051,661637493
0,33,3,diff,FALSE,s,0,z,0,4.57129979,2018_Apr_03_1538,59.95677375,18S051,661637493
0,34,2,diff,TRUE,j,270,i,0,1.635209316,2018_Apr_03_1538,59.95677375,18S051,661637493
0,35,3,same,TRUE,l,180,l,90,2.132918993,2018_Apr_03_1538,59.95677375,18S051,661637493
0,36,3,same,TRUE,j,0,j,90,3.51953567,2018_Apr_03_1538,59.95677375,18S051,661637493
0,37,3,same,TRUE,t,180,t,0,1.233640351,2018_Apr_03_1538,59.95677375,18S051,661637493
0,38,3,same,TRUE,j,0,j,0,0.917644991,2018_Apr_03_1538,59.95677375,18S051,661637493
0,39,3,same,TRUE,j,180,j,0,6.873136388,2018_Apr_03_1538,59.95677375,18S051,661637493
0,40,2,diff,TRUE,j,270,i,90,0.784948813,2018_Apr_03_1538,59.95677375,18S051,661637493
0,41,3,same,TRUE,i,0,i,90,0.966120862,2018_Apr_03_1538,59.95677375,18S051,661637493
0,42,3,same,TRUE,j,90,j,90,0.817640943,2018_Apr_03_1538,59.95677375,18S051,661637493
0,43,2,diff,TRUE,j,180,l,90,2.152824988,2018_Apr_03_1538,59.95677375,18S051,661637493
0,44,2,diff,TRUE,o,0,t,270,0.785002784,2018_Apr_03_1538,59.95677375,18S051,661637493
0,45,3,same,TRUE,l,270,l,270,0.751341355,2018_Apr_03_1538,59.95677375,18S051,661637493
0,46,2,diff,TRUE,z,90,j,0,0.784848163,2018_Apr_03_1538,59.95677375,18S051,661637493
0,47,3,same,TRUE,l,270,l,180,1.602035089,2018_Apr_03_1538,59.95677375,18S051,661637493
0,48,3,same,TRUE,i,90,i,0,0.867940539,2018_Apr_03_1538,59.95677375,18S051,661637493
0,49,2,diff,TRUE,j,180,l,270,3.837475462,2018_Apr_03_1538,59.95677375,18S051,661637493
0,50,2,diff,TRUE,t,0,l,270,1.034805405,2018_Apr_03_1538,59.95677375,18S051,661637493
0,51,2,diff,TRUE,i,90,s,90,0.768138155,2018_Apr_03_1538,59.95677375,18S051,661637493
0,52,2,diff,TRUE,z,90,t,0,1.018421414,2018_Apr_03_1538,59.95677375,18S051,661637493
0,53,3,same,TRUE,j,90,j,270,2.018141346,2018_Apr_03_1538,59.95677375,18S051,661637493
0,54,2,diff,TRUE,i,90,t,180,0.654247756,2018_Apr_03_1538,59.95677375,18S051,661637493
0,55,3,same,TRUE,j,270,j,180,1.935622599,2018_Apr_03_1538,59.95677375,18S051,661637493
0,56,2,diff,TRUE,s,0,o,0,0.784932038,2018_Apr_03_1538,59.95677375,18S051,661637493
0,57,3,same,TRUE,o,0,o,0,0.799647654,2018_Apr_03_1538,59.95677375,18S051,661637493
0,58,2,diff,TRUE,l,0,j,180,3.319866355,2018_Apr_03_1538,59.95677375,18S051,661637493
0,59,2,diff,TRUE,l,270,t,270,0.837119542,2018_Apr_03_1538,59.95677375,18S051,661637493
1,0,3,same,TRUE,l,0,l,270,1.585730962,2018_Apr_03_1538,59.95677375,18S051,661637493
1,1,2,same,FALSE,l,0,l,90,1.350538931,2018_Apr_03_1538,59.95677375,18S051,661637493
1,2,3,same,TRUE,t,90,t,90,0.718310445,2018_Apr_03_1538,59.95677375,18S051,661637493
1,3,3,same,TRUE,j,270,j,270,0.718584313,2018_Apr_03_1538,59.95677375,18S051,661637493
1,4,2,diff,TRUE,l,0,t,90,0.833763099,2018_Apr_03_1538,59.95677375,18S051,661637493
1,5,3,diff,FALSE,t,0,i,90,0.60146766,2018_Apr_03_1538,59.95677375,18S051,661637493
1,6,2,diff,TRUE,i,90,s,0,0.751998859,2018_Apr_03_1538,59.95677375,18S051,661637493
1,7,3,same,TRUE,t,0,t,270,0.96648444,2018_Apr_03_1538,59.95677375,18S051,661637493
1,8,3,same,TRUE,j,90,j,180,7.023925776,2018_Apr_03_1538,59.95677375,18S051,661637493
1,9,2,same,FALSE,l,270,l,90,3.236664577,2018_Apr_03_1538,59.95677375,18S051,661637493
1,10,3,same,TRUE,t,90,t,180,0.768228959,2018_Apr_03_1538,59.95677375,18S051,661637493
1,11,2,diff,TRUE,t,0,l,180,0.851921585,2018_Apr_03_1538,59.95677375,18S051,661637493
1,12,3,same,TRUE,t,0,t,0,0.734604726,2018_Apr_03_1538,59.95677375,18S051,661637493
1,13,2,diff,TRUE,i,0,z,90,0.617895411,2018_Apr_03_1538,59.95677375,18S051,661637493
1,14,2,diff,TRUE,t,90,s,0,1.118371491,2018_Apr_03_1538,59.95677375,18S051,661637493
1,15,3,same,TRUE,s,90,s,90,0.918407885,2018_Apr_03_1538,59.95677375,18S051,661637493
1,16,3,same,TRUE,s,90,s,0,2.186574667,2018_Apr_03_1538,59.95677375,18S051,661637493
1,17,2,diff,TRUE,o,0,j,270,1.051722547,2018_Apr_03_1538,59.95677375,18S051,661637493
1,18,2,diff,TRUE,l,90,i,90,0.734913239,2018_Apr_03_1538,59.95677375,18S051,661637493
1,19,3,same,TRUE,l,0,l,180,3.584907167,2018_Apr_03_1538,59.95677375,18S051,661637493
1,20,3,same,TRUE,z,0,z,0,0.885535607,2018_Apr_03_1538,59.95677375,18S051,661637493
1,21,2,diff,TRUE,i,0,j,90,0.770412251,2018_Apr_03_1538,59.95677375,18S051,661637493
1,22,3,same,TRUE,i,90,i,90,0.951768459,2018_Apr_03_1538,59.95677375,18S051,661637493
1,23,2,diff,TRUE,z,90,s,90,10.67603947,2018_Apr_03_1538,59.95677375,18S051,661637493
1,24,2,diff,TRUE,l,180,i,0,2.686339636,2018_Apr_03_1538,59.95677375,18S051,661637493
1,25,3,same,TRUE,j,270,j,90,3.153330059,2018_Apr_03_1538,59.95677375,18S051,661637493
1,26,2,diff,TRUE,s,0,l,0,1.269024856,2018_Apr_03_1538,59.95677375,18S051,661637493
1,27,2,diff,TRUE,t,270,l,180,0.918233936,2018_Apr_03_1538,59.95677375,18S051,661637493
1,28,3,same,TRUE,l,180,l,180,0.734695894,2018_Apr_03_1538,59.95677375,18S051,661637493
1,29,2,diff,TRUE,z,0,j,0,0.635753043,2018_Apr_03_1538,59.95677375,18S051,661637493
1,30,3,same,TRUE,t,0,t,180,1.001294586,2018_Apr_03_1538,59.95677375,18S051,661637493
1,31,2,diff,TRUE,z,90,t,90,0.734427131,2018_Apr_03_1538,59.95677375,18S051,661637493
1,32,2,diff,TRUE,j,180,s,0,0.686159853,2018_Apr_03_1538,59.95677375,18S051,661637493
1,33,3,same,TRUE,t,270,t,0,0.734520122,2018_Apr_03_1538,59.95677375,18S051,661637493
1,34,3,same,TRUE,z,90,z,90,0.651065262,2018_Apr_03_1538,59.95677375,18S051,661637493
1,35,2,diff,TRUE,t,270,j,90,0.703683444,2018_Apr_03_1538,59.95677375,18S051,661637493
1,36,2,diff,TRUE,t,180,j,180,0.834674051,2018_Apr_03_1538,59.95677375,18S051,661637493
1,37,3,same,TRUE,t,90,t,0,2.019542052,2018_Apr_03_1538,59.95677375,18S051,661637493
1,38,3,same,TRUE,i,0,i,0,0.782633145,2018_Apr_03_1538,59.95677375,18S051,661637493
1,39,2,diff,TRUE,t,0,j,90,0.784920733,2018_Apr_03_1538,59.95677375,18S051,661637493
1,40,2,diff,TRUE,j,0,l,180,2.46908437,2018_Apr_03_1538,59.95677375,18S051,661637493
1,41,2,diff,TRUE,t,180,l,180,0.768056104,2018_Apr_03_1538,59.95677375,18S051,661637493
1,42,2,diff,TRUE,z,0,l,90,1.202008687,2018_Apr_03_1538,59.95677375,18S051,661637493
1,43,2,diff,TRUE,t,270,j,270,0.801256587,2018_Apr_03_1538,59.95677375,18S051,661637493
1,44,2,diff,TRUE,j,90,s,90,1.034698921,2018_Apr_03_1538,59.95677375,18S051,661637493
1,45,2,diff,TRUE,l,0,s,90,0.750900831,2018_Apr_03_1538,59.95677375,18S051,661637493
1,46,3,same,TRUE,l,180,l,270,3.286742088,2018_Apr_03_1538,59.95677375,18S051,661637493
1,47,2,diff,TRUE,t,0,j,0,0.73478451,2018_Apr_03_1538,59.95677375,18S051,661637493
1,48,3,same,TRUE,z,90,z,0,2.219443663,2018_Apr_03_1538,59.95677375,18S051,661637493
1,49,3,same,TRUE,j,0,j,270,1.785448778,2018_Apr_03_1538,59.95677375,18S051,661637493
1,50,3,same,TRUE,t,270,t,180,0.767720241,2018_Apr_03_1538,59.95677375,18S051,661637493
1,51,2,diff,TRUE,j,0,z,0,0.669836397,2018_Apr_03_1538,59.95677375,18S051,661637493
1,52,3,same,TRUE,s,0,s,0,0.751476284,2018_Apr_03_1538,59.95677375,18S051,661637493
1,53,2,diff,TRUE,o,0,l,180,0.633345477,2018_Apr_03_1538,59.95677375,18S051,661637493
1,54,3,same,TRUE,j,0,j,180,1.703230521,2018_Apr_03_1538,59.95677375,18S051,661637493
1,55,3,same,TRUE,t,180,t,90,0.75160866,2018_Apr_03_1538,59.95677375,18S051,661637493
1,56,3,same,TRUE,l,90,l,0,1.302109373,2018_Apr_03_1538,59.95677375,18S051,661637493
1,57,2,diff,TRUE,l,270,j,90,4.836213332,2018_Apr_03_1538,59.95677375,18S051,661637493
1,58,2,diff,TRUE,i,90,l,270,0.717920975,2018_Apr_03_1538,59.95677375,18S051,661637493
1,59,2,diff,TRUE,j,0,t,0,0.750507715,2018_Apr_03_1538,59.95677375,18S051,661637493
1,60,2,diff,TRUE,l,90,t,90,0.601089859,2018_Apr_03_1538,59.95677375,18S051,661637493
2,0,2,diff,TRUE,j,180,z,90,0.851858132,2018_Apr_03_1538,59.95677375,18S051,661637493
2,1,3,same,TRUE,i,90,i,0,0.653377648,2018_Apr_03_1538,59.95677375,18S051,661637493
2,2,3,same,TRUE,l,90,l,180,1.435052434,2018_Apr_03_1538,59.95677375,18S051,661637493
2,3,2,diff,TRUE,l,0,i,0,0.58488784,2018_Apr_03_1538,59.95677375,18S051,661637493
2,4,3,same,TRUE,l,0,l,0,0.636505361,2018_Apr_03_1538,59.95677375,18S051,661637493
2,5,2,diff,TRUE,i,0,t,90,0.568081558,2018_Apr_03_1538,59.95677375,18S051,661637493
2,6,2,diff,TRUE,i,90,j,90,0.684290543,2018_Apr_03_1538,59.95677375,18S051,661637493
2,7,3,same,TRUE,l,90,l,270,2.286296823,2018_Apr_03_1538,59.95677375,18S051,661637493
2,8,3,same,TRUE,s,0,s,90,1.735796475,2018_Apr_03_1538,59.95677375,18S051,661637493
2,9,3,same,TRUE,j,270,j,0,1.501833025,2018_Apr_03_1538,59.95677375,18S051,661637493
2,10,2,diff,TRUE,j,270,t,270,0.818116476,2018_Apr_03_1538,59.95677375,18S051,661637493
2,11,3,same,TRUE,j,180,j,270,2.085669514,2018_Apr_03_1538,59.95677375,18S051,661637493
2,12,3,same,TRUE,t,180,t,270,0.836653491,2018_Apr_03_1538,59.95677375,18S051,661637493
2,13,3,same,TRUE,j,180,j,180,0.61778528,2018_Apr_03_1538,59.95677375,18S051,661637493
2,14,3,same,TRUE,t,180,t,0,0.735127302,2018_Apr_03_1538,59.95677375,18S051,661637493
2,15,2,diff,TRUE,j,270,l,90,2.986731039,2018_Apr_03_1538,59.95677375,18S051,661637493
2,16,2,diff,TRUE,i,90,l,180,0.751234142,2018_Apr_03_1538,59.95677375,18S051,661637493
2,17,2,diff,TRUE,t,270,j,180,0.718031106,2018_Apr_03_1538,59.95677375,18S051,661637493
2,18,2,diff,TRUE,t,0,z,0,0.834666028,2018_Apr_03_1538,59.95677375,18S051,661637493
2,19,2,diff,TRUE,j,0,l,90,1.601842178,2018_Apr_03_1538,59.95677375,18S051,661637493
2,20,2,diff,TRUE,j,90,l,180,2.903287118,2018_Apr_03_1538,59.95677375,18S051,661637493
2,21,2,diff,TRUE,j,0,z,90,0.901537421,2018_Apr_03_1538,59.95677375,18S051,661637493
2,22,3,same,TRUE,t,90,t,180,0.750638997,2018_Apr_03_1538,59.95677375,18S051,661637493
2,23,3,same,TRUE,i,0,i,90,0.849860823,2018_Apr_03_1538,59.95677375,18S051,661637493
2,24,2,diff,TRUE,s,90,j,0,0.668058985,2018_Apr_03_1538,59.95677375,18S051,661637493
2,25,2,diff,TRUE,z,90,l,270,1.002266073,2018_Apr_03_1538,59.95677375,18S051,661637493
2,26,3,same,TRUE,t,90,t,270,0.649892112,2018_Apr_03_1538,59.95677375,18S051,661637493
2,27,2,diff,TRUE,j,270,t,0,0.768154201,2018_Apr_03_1538,59.95677375,18S051,661637493
2,28,3,same,TRUE,t,270,t,180,0.685192377,2018_Apr_03_1538,59.95677375,18S051,661637493
2,29,3,same,TRUE,t,270,t,90,0.569875745,2018_Apr_03_1538,59.95677375,18S051,661637493
2,30,2,diff,TRUE,j,90,s,0,0.667813925,2018_Apr_03_1538,59.95677375,18S051,661637493
2,31,3,same,TRUE,s,90,s,0,0.65191823,2018_Apr_03_1538,59.95677375,18S051,661637493
2,32,2,diff,TRUE,t,270,l,0,1.736885751,2018_Apr_03_1538,59.95677375,18S051,661637493
2,33,3,same,TRUE,s,90,s,90,0.768147272,2018_Apr_03_1538,59.95677375,18S051,661637493
2,34,3,same,TRUE,l,180,l,90,1.285431821,2018_Apr_03_1538,59.95677375,18S051,661637493
2,35,3,same,TRUE,z,90,z,90,0.633533283,2018_Apr_03_1538,59.95677375,18S051,661637493
2,36,3,same,TRUE,l,0,l,180,4.337420214,2018_Apr_03_1538,59.95677375,18S051,661637493
2,37,3,same,TRUE,j,0,j,0,0.549470879,2018_Apr_03_1538,59.95677375,18S051,661637493
2,38,2,diff,TRUE,i,90,t,90,0.667938279,2018_Apr_03_1538,59.95677375,18S051,661637493
2,39,2,diff,TRUE,l,90,j,90,2.168235669,2018_Apr_03_1538,59.95677375,18S051,661637493
2,40,3,same,TRUE,t,270,t,0,1.018116548,2018_Apr_03_1538,59.95677375,18S051,661637493
2,41,2,diff,TRUE,t,180,o,0,0.751305982,2018_Apr_03_1538,59.95677375,18S051,661637493
2,42,2,diff,TRUE,i,90,j,180,0.617155127,2018_Apr_03_1538,59.95677375,18S051,661637493
2,43,2,diff,TRUE,j,180,t,180,0.55003685,2018_Apr_03_1538,59.95677375,18S051,661637493
2,44,2,diff,TRUE,l,180,o,0,0.467803277,2018_Apr_03_1538,59.95677375,18S051,661637493
2,45,3,same,TRUE,j,180,j,0,1.819044931,2018_Apr_03_1538,59.95677375,18S051,661637493
2,46,3,same,TRUE,z,0,z,0,0.717593499,2018_Apr_03_1538,59.95677375,18S051,661637493
2,47,3,same,TRUE,j,0,j,180,1.652071028,2018_Apr_03_1538,59.95677375,18S051,661637493
2,48,2,diff,TRUE,t,90,z,0,0.618013565,2018_Apr_03_1538,59.95677375,18S051,661637493
2,49,2,diff,TRUE,j,0,s,0,0.751688159,2018_Apr_03_1538,59.95677375,18S051,661637493
2,50,3,same,TRUE,l,0,l,270,1.652019609,2018_Apr_03_1538,59.95677375,18S051,661637493
2,51,2,diff,TRUE,t,90,l,90,0.701400596,2018_Apr_03_1538,59.95677375,18S051,661637493
2,52,2,diff,TRUE,z,0,s,90,1.785630385,2018_Apr_03_1538,59.95677375,18S051,661637493
2,53,3,same,TRUE,t,0,t,90,0.801828029,2018_Apr_03_1538,59.95677375,18S051,661637493
2,54,2,diff,TRUE,j,0,t,90,0.920128773,2018_Apr_03_1538,59.95677375,18S051,661637493
2,55,2,diff,TRUE,s,90,i,0,0.584552706,2018_Apr_03_1538,59.95677375,18S051,661637493
2,56,3,same,TRUE,i,0,i,0,0.768439739,2018_Apr_03_1538,59.95677375,18S051,661637493
2,57,2,diff,TRUE,l,270,j,180,3.804131663,2018_Apr_03_1538,59.95677375,18S051,661637493
2,58,2,diff,TRUE,l,0,t,270,0.734676931,2018_Apr_03_1538,59.95677375,18S051,661637493
2,59,3,same,TRUE,o,0,o,0,0.717839288,2018_Apr_03_1538,59.95677375,18S051,661637493
3,0,3,same,TRUE,t,90,t,0,0.901447712,2018_Apr_03_1538,59.95677375,18S051,661637493
3,1,3,same,TRUE,l,270,l,180,1.285485793,2018_Apr_03_1538,59.95677375,18S051,661637493
3,2,3,same,TRUE,t,90,t,90,0.618077018,2018_Apr_03_1538,59.95677375,18S051,661637493
3,3,2,diff,TRUE,i,0,j,0,0.618017576,2018_Apr_03_1538,59.95677375,18S051,661637493
3,4,2,diff,TRUE,l,90,t,180,0.801585157,2018_Apr_03_1538,59.95677375,18S051,661637493
3,5,3,same,TRUE,l,180,l,270,1.351817107,2018_Apr_03_1538,59.95677375,18S051,661637493
3,6,3,same,TRUE,j,0,j,90,1.218414923,2018_Apr_03_1538,59.95677375,18S051,661637493
3,7,3,same,TRUE,l,270,l,0,1.152195563,2018_Apr_03_1538,59.95677375,18S051,661637493
3,8,2,diff,TRUE,l,0,z,0,0.753017389,2018_Apr_03_1538,59.95677375,18S051,661637493
3,9,3,same,TRUE,t,0,t,270,0.784959024,2018_Apr_03_1538,59.95677375,18S051,661637493
3,10,2,diff,TRUE,j,180,s,90,0.651759233,2018_Apr_03_1538,59.95677375,18S051,661637493
3,11,2,same,FALSE,j,270,j,90,3.320396953,2018_Apr_03_1538,59.95677375,18S051,661637493
3,12,2,diff,TRUE,t,90,l,270,0.968177978,2018_Apr_03_1538,59.95677375,18S051,661637493
3,13,2,diff,TRUE,t,90,j,0,0.651219518,2018_Apr_03_1538,59.95677375,18S051,661637493
3,14,3,same,TRUE,t,180,t,90,0.818075997,2018_Apr_03_1538,59.95677375,18S051,661637493
3,15,3,same,TRUE,t,270,t,270,0.65137341,2018_Apr_03_1538,59.95677375,18S051,661637493
3,16,2,diff,TRUE,j,270,l,180,2.204407501,2018_Apr_03_1538,59.95677375,18S051,661637493
3,17,2,diff,TRUE,t,0,l,90,1.50226115,2018_Apr_03_1538,59.95677375,18S051,661637493
3,18,2,diff,TRUE,j,90,z,90,0.818118299,2018_Apr_03_1538,59.95677375,18S051,661637493
3,19,3,same,TRUE,l,180,l,180,0.816470345,2018_Apr_03_1538,59.95677375,18S051,661637493
3,20,3,same,TRUE,l,90,l,90,0.584763486,2018_Apr_03_1538,59.95677375,18S051,661637493
3,21,2,diff,TRUE,i,90,z,90,1.052051482,2018_Apr_03_1538,59.95677375,18S051,661637493
3,22,3,same,TRUE,l,270,l,270,0.652748953,2018_Apr_03_1538,59.95677375,18S051,661637493
3,23,3,same,TRUE,j,180,j,90,1.518456241,2018_Apr_03_1538,59.95677375,18S051,661637493
3,24,3,same,TRUE,j,90,j,0,1.152067199,2018_Apr_03_1538,59.95677375,18S051,661637493
3,25,3,same,TRUE,i,90,i,90,0.750264114,2018_Apr_03_1538,59.95677375,18S051,661637493
3,26,3,same,TRUE,z,0,z,90,2.019299545,2018_Apr_03_1538,59.95677375,18S051,661637493
3,27,3,same,TRUE,t,0,t,0,0.651465307,2018_Apr_03_1538,59.95677375,18S051,661637493
3,28,2,diff,TRUE,t,180,z,0,0.951858533,2018_Apr_03_1538,59.95677375,18S051,661637493
3,29,2,diff,TRUE,l,270,t,0,0.685067295,2018_Apr_03_1538,59.95677375,18S051,661637493
3,30,2,diff,TRUE,l,180,j,270,1.470832244,2018_Apr_03_1538,59.95677375,18S051,661637493
3,31,2,diff,TRUE,i,0,j,180,0.651255986,2018_Apr_03_1538,59.95677375,18S051,661637493
3,32,2,diff,TRUE,i,90,l,90,0.518363614,2018_Apr_03_1538,59.95677375,18S051,661637493
3,33,2,same,FALSE,l,270,l,90,1.501998221,2018_Apr_03_1538,59.95677375,18S051,661637493
3,34,3,same,TRUE,l,0,l,90,1.985420772,2018_Apr_03_1538,59.95677375,18S051,661637493
3,35,3,same,TRUE,j,270,j,180,1.719197692,2018_Apr_03_1538,59.95677375,18S051,661637493
3,36,3,same,TRUE,l,90,l,0,1.551009795,2018_Apr_03_1538,59.95677375,18S051,661637493
3,37,2,diff,TRUE,t,270,j,0,0.751816159,2018_Apr_03_1538,59.95677375,18S051,661637493
3,38,2,diff,TRUE,t,90,i,90,1.752208181,2018_Apr_03_1538,59.95677375,18S051,661637493
3,39,2,diff,TRUE,i,90,z,0,0.668211783,2018_Apr_03_1538,59.95677375,18S051,661637493
3,40,3,same,TRUE,z,90,z,0,1.268745881,2018_Apr_03_1538,59.95677375,18S051,661637493
3,41,3,same,TRUE,j,0,j,270,1.054126831,2018_Apr_03_1538,59.95677375,18S051,661637493
3,42,3,same,TRUE,j,90,j,180,1.135070923,2018_Apr_03_1538,59.95677375,18S051,661637493
3,43,2,diff,TRUE,l,270,o,0,0.701709109,2018_Apr_03_1538,59.95677375,18S051,661637493
3,44,2,diff,TRUE,j,0,i,90,0.720804802,2018_Apr_03_1538,59.95677375,18S051,661637493
3,45,3,same,TRUE,t,0,t,180,1.00156335,2018_Apr_03_1538,59.95677375,18S051,661637493
3,46,2,diff,TRUE,z,0,o,0,0.534944893,2018_Apr_03_1538,59.95677375,18S051,661637493
3,47,2,diff,TRUE,z,0,l,270,0.517882611,2018_Apr_03_1538,59.95677375,18S051,661637493
3,48,3,same,TRUE,j,90,j,90,0.600795933,2018_Apr_03_1538,59.95677375,18S051,661637493
3,49,3,same,TRUE,j,90,j,270,1.552069897,2018_Apr_03_1538,59.95677375,18S051,661637493
3,50,2,diff,TRUE,l,270,i,90,0.651483176,2018_Apr_03_1538,59.95677375,18S051,661637493
3,51,2,diff,TRUE,s,90,j,90,0.701359753,2018_Apr_03_1538,59.95677375,18S051,661637493
3,52,2,diff,TRUE,t,270,i,90,0.551980917,2018_Apr_03_1538,59.95677375,18S051,661637493
3,53,3,same,TRUE,j,270,j,270,0.652021797,2018_Apr_03_1538,59.95677375,18S051,661637493
3,54,3,same,TRUE,l,180,l,0,1.60199534,2018_Apr_03_1538,59.95677375,18S051,661637493
3,55,3,same,TRUE,t,180,t,180,0.668437515,2018_Apr_03_1538,59.95677375,18S051,661637493
3,56,3,same,TRUE,s,0,s,0,0.601325802,2018_Apr_03_1538,59.95677375,18S051,661637493
3,57,2,diff,TRUE,j,180,t,90,0.684773734,2018_Apr_03_1538,59.95677375,18S051,661637493
3,58,2,diff,TRUE,z,0,t,0,0.801837145,2018_Apr_03_1538,59.95677375,18S051,661637493
3,59,2,diff,TRUE,t,180,i,90,0.601329084,2018_Apr_03_1538,59.95677375,18S051,661637493
3,60,2,diff,TRUE,l,180,s,90,0.517429324,2018_Apr_03_1538,59.95677375,18S051,661637493
4,0,2,diff,TRUE,l,270,t,90,0.700107834,2018_Apr_03_1538,59.95677375,18S051,661637493
4,1,2,diff,TRUE,j,270,s,90,0.534450762,2018_Apr_03_1538,59.95677375,18S051,661637493
4,2,2,diff,TRUE,s,0,i,90,0.534983548,2018_Apr_03_1538,59.95677375,18S051,661637493
4,3,2,diff,TRUE,o,0,i,90,0.603175055,2018_Apr_03_1538,59.95677375,18S051,661637493
4,4,2,diff,TRUE,z,90,i,0,0.434405141,2018_Apr_03_1538,59.95677375,18S051,661637493
4,5,3,same,TRUE,z,0,z,90,1.668890073,2018_Apr_03_1538,59.95677375,18S051,661637493
4,6,3,same,TRUE,j,0,j,270,1.152040578,2018_Apr_03_1538,59.95677375,18S051,661637493
4,7,2,same,FALSE,l,180,l,0,1.268927124,2018_Apr_03_1538,59.95677375,18S051,661637493
4,8,2,diff,TRUE,j,90,l,90,1.819020498,2018_Apr_03_1538,59.95677375,18S051,661637493
4,9,3,same,TRUE,t,180,t,180,0.601598212,2018_Apr_03_1538,59.95677375,18S051,661637493
4,10,2,diff,TRUE,z,90,j,270,0.851825312,2018_Apr_03_1538,59.95677375,18S051,661637493
4,11,3,same,TRUE,t,0,t,270,0.684787591,2018_Apr_03_1538,59.95677375,18S051,661637493
4,12,3,same,TRUE,j,90,j,180,0.701154807,2018_Apr_03_1538,59.95677375,18S051,661637493
4,13,2,diff,TRUE,j,180,i,90,0.684845939,2018_Apr_03_1538,59.95677375,18S051,661637493
4,14,3,same,TRUE,j,270,j,90,2.638832334,2018_Apr_03_1538,59.95677375,18S051,661637493
4,15,3,same,TRUE,t,0,t,90,0.851467204,2018_Apr_03_1538,59.95677375,18S051,661637493
4,16,3,same,TRUE,j,90,j,270,1.602169654,2018_Apr_03_1538,59.95677375,18S051,661637493
4,17,3,same,TRUE,s,90,s,0,1.484732453,2018_Apr_03_1538,59.95677375,18S051,661637493
4,18,3,same,TRUE,i,90,i,0,0.718084348,2018_Apr_03_1538,59.95677375,18S051,661637493
4,19,3,same,TRUE,i,90,i,90,0.551596188,2018_Apr_03_1538,59.95677375,18S051,661637493
4,20,2,diff,TRUE,i,0,l,0,0.6335362,2018_Apr_03_1538,59.95677375,18S051,661637493
4,21,2,diff,TRUE,l,180,t,180,0.75121919,2018_Apr_03_1538,59.95677375,18S051,661637493
4,22,3,same,TRUE,t,180,t,0,0.718415106,2018_Apr_03_1538,59.95677375,18S051,661637493
4,23,2,diff,TRUE,s,90,l,0,0.803335583,2018_Apr_03_1538,59.95677375,18S051,661637493
4,24,2,diff,TRUE,l,90,o,0,0.534398978,2018_Apr_03_1538,59.95677375,18S051,661637493
4,25,2,diff,TRUE,s,0,l,270,0.63508241,2018_Apr_03_1538,59.95677375,18S051,661637493
4,26,3,same,TRUE,t,270,t,270,0.617610967,2018_Apr_03_1538,59.95677375,18S051,661637493
4,27,3,same,TRUE,i,0,i,90,0.734736008,2018_Apr_03_1538,59.95677375,18S051,661637493
4,28,2,diff,TRUE,l,90,z,0,0.601985859,2018_Apr_03_1538,59.95677375,18S051,661637493
4,29,2,diff,TRUE,i,0,l,90,0.684727056,2018_Apr_03_1538,59.95677375,18S051,661637493
4,30,2,diff,TRUE,j,90,l,0,2.269421254,2018_Apr_03_1538,59.95677375,18S051,661637493
4,31,3,same,TRUE,t,270,t,180,0.685152628,2018_Apr_03_1538,59.95677375,18S051,661637493
4,32,3,same,TRUE,l,90,l,0,0.903418765,2018_Apr_03_1538,59.95677375,18S051,661637493
4,33,2,diff,TRUE,j,90,i,0,0.717963277,2018_Apr_03_1538,59.95677375,18S051,661637493
4,34,3,same,TRUE,j,180,j,0,1.50237821,2018_Apr_03_1538,59.95677375,18S051,661637493
4,35,3,same,TRUE,z,90,z,0,1.002643509,2018_Apr_03_1538,59.95677375,18S051,661637493
4,36,2,diff,TRUE,j,180,z,0,0.534559799,2018_Apr_03_1538,59.95677375,18S051,661637493
4,37,2,diff,TRUE,l,270,z,90,0.534596631,2018_Apr_03_1538,59.95677375,18S051,661637493
4,38,3,same,TRUE,j,270,j,0,1.070771927,2018_Apr_03_1538,59.95677375,18S051,661637493
4,39,3,same,TRUE,l,270,l,270,0.701369964,2018_Apr_03_1538,59.95677375,18S051,661637493
4,40,3,same,TRUE,t,90,t,270,0.718546752,2018_Apr_03_1538,59.95677375,18S051,661637493
4,41,2,diff,TRUE,l,180,z,0,0.651519279,2018_Apr_03_1538,59.95677375,18S051,661637493
4,42,3,same,TRUE,t,270,t,0,0.651383256,2018_Apr_03_1538,59.95677375,18S051,661637493
4,43,2,diff,TRUE,z,0,j,90,0.685115796,2018_Apr_03_1538,59.95677375,18S051,661637493
4,44,2,diff,TRUE,s,0,j,90,0.751372717,2018_Apr_03_1538,59.95677375,18S051,661637493
4,45,2,diff,TRUE,s,0,j,270,0.701483742,2018_Apr_03_1538,59.95677375,18S051,661637493
4,46,2,diff,TRUE,t,270,z,90,0.85172758,2018_Apr_03_1538,59.95677375,18S051,661637493
4,47,2,diff,TRUE,i,90,t,270,0.517761905,2018_Apr_03_1538,59.95677375,18S051,661637493
4,48,2,diff,TRUE,z,0,l,180,0.518139705,2018_Apr_03_1538,59.95677375,18S051,661637493
4,49,3,same,TRUE,t,0,t,0,0.568014094,2018_Apr_03_1538,59.95677375,18S051,661637493
4,50,2,diff,TRUE,t,90,s,90,0.735145535,2018_Apr_03_1538,59.95677375,18S051,661637493
4,51,3,same,TRUE,t,90,t,90,0.583340171,2018_Apr_03_1538,59.95677375,18S051,661637493
4,52,2,same,FALSE,j,180,j,270,2.803107299,2018_Apr_03_1538,59.95677375,18S051,661637493
4,53,3,same,TRUE,l,90,l,90,0.618044927,2018_Apr_03_1538,59.95677375,18S051,661637493
4,54,2,diff,TRUE,i,0,o,0,0.684705175,2018_Apr_03_1538,59.95677375,18S051,661637493
4,55,2,diff,TRUE,t,0,j,270,0.601724024,2018_Apr_03_1538,59.95677375,18S051,661637493
4,56,2,diff,TRUE,t,180,l,90,0.601377221,2018_Apr_03_1538,59.95677375,18S051,661637493
4,57,3,same,TRUE,z,90,z,90,0.584817823,2018_Apr_03_1538,59.95677375,18S051,661637493
4,58,2,diff,TRUE,l,90,j,0,1.518702394,2018_Apr_03_1538,59.95677375,18S051,661637493
4,59,2,diff,TRUE,t,0,s,90,0.818226607,2018_Apr_03_1538,59.95677375,18S051,661637493
5,0,3,same,TRUE,t,180,t,90,1.068430732,2018_Apr_03_1538,59.95677375,18S051,661637493
5,1,2,diff,TRUE,t,90,o,0,0.501662723,2018_Apr_03_1538,59.95677375,18S051,661637493
5,2,3,same,TRUE,l,180,l,270,1.218348553,2018_Apr_03_1538,59.95677375,18S051,661637493
5,3,2,diff,TRUE,j,270,z,0,0.617927138,2018_Apr_03_1538,59.95677375,18S051,661637493
5,4,3,same,TRUE,j,180,j,180,0.617991685,2018_Apr_03_1538,59.95677375,18S051,661637493
5,5,2,diff,TRUE,t,0,i,0,0.684773369,2018_Apr_03_1538,59.95677375,18S051,661637493
5,6,2,same,FALSE,o,0,o,0,0.467841567,2018_Apr_03_1538,59.95677375,18S051,661637493
5,7,3,same,TRUE,j,180,j,90,0.901511894,2018_Apr_03_1538,59.95677375,18S051,661637493
5,8,3,same,TRUE,t,180,t,270,0.834894677,2018_Apr_03_1538,59.95677375,18S051,661637493
5,9,3,diff,FALSE,t,180,l,0,0.884940462,2018_Apr_03_1538,59.95677375,18S051,661637493
5,10,3,same,TRUE,s,0,s,90,1.485643039,2018_Apr_03_1538,59.95677375,18S051,661637493
5,11,2,diff,TRUE,o,0,z,90,0.634608701,2018_Apr_03_1538,59.95677375,18S051,661637493
5,12,2,diff,TRUE,t,180,s,0,0.784759913,2018_Apr_03_1538,59.95677375,18S051,661637493
5,13,3,same,TRUE,t,90,t,180,0.801453146,2018_Apr_03_1538,59.95677375,18S051,661637493
5,14,3,same,TRUE,j,270,j,180,1.218590695,2018_Apr_03_1538,59.95677375,18S051,661637493
5,15,2,diff,TRUE,z,0,i,90,0.618247685,2018_Apr_03_1538,59.95677375,18S051,661637493
5,16,2,diff,TRUE,l,90,s,90,1.452441827,2018_Apr_03_1538,59.95677375,18S051,661637493
5,17,2,diff,TRUE,j,0,l,0,2.003111748,2018_Apr_03_1538,59.95677375,18S051,661637493
5,18,3,same,TRUE,t,270,t,90,0.567825923,2018_Apr_03_1538,59.95677375,18S051,661637493
5,19,3,same,TRUE,l,0,l,90,1.152183165,2018_Apr_03_1538,59.95677375,18S051,661637493
5,20,2,diff,TRUE,i,90,j,270,0.649936966,2018_Apr_03_1538,59.95677375,18S051,661637493
5,21,2,diff,TRUE,s,0,t,90,0.801308735,2018_Apr_03_1538,59.95677375,18S051,661637493
5,22,3,same,TRUE,t,0,t,180,0.751920455,2018_Apr_03_1538,59.95677375,18S051,661637493
5,23,3,same,TRUE,t,90,t,0,0.619967479,2018_Apr_03_1538,59.95677375,18S051,661637493
5,24,2,diff,TRUE,j,270,t,180,0.818099336,2018_Apr_03_1538,59.95677375,18S051,661637493
5,25,2,diff,TRUE,o,0,j,180,0.668411988,2018_Apr_03_1538,59.95677375,18S051,661637493
5,26,2,diff,TRUE,i,0,z,0,0.617895776,2018_Apr_03_1538,59.95677375,18S051,661637493
5,27,3,same,TRUE,s,90,s,90,0.568035974,2018_Apr_03_1538,59.95677375,18S051,661637493
5,28,3,same,TRUE,l,270,l,0,12.07659574,2018_Apr_03_1538,59.95677375,18S051,661637493
5,29,2,diff,TRUE,z,90,i,90,0.570023437,2018_Apr_03_1538,59.95677375,18S051,661637493
5,30,2,diff,TRUE,t,270,i,0,0.818262709,2018_Apr_03_1538,59.95677375,18S051,661637493
5,31,2,diff,TRUE,j,180,i,0,0.568291609,2018_Apr_03_1538,59.95677375,18S051,661637493
5,32,3,same,TRUE,l,0,l,180,1.520367123,2018_Apr_03_1538,59.95677375,18S051,661637493
5,33,3,same,TRUE,l,0,l,0,0.618023776,2018_Apr_03_1538,59.95677375,18S051,661637493
5,34,3,same,TRUE,i,0,i,0,0.484905672,2018_Apr_03_1538,59.95677375,18S051,661637493
5,35,2,diff,TRUE,t,270,l,90,0.684808013,2018_Apr_03_1538,59.95677375,18S051,661637493
5,36,2,diff,TRUE,l,180,t,0,0.584623817,2018_Apr_03_1538,59.95677375,18S051,661637493
5,37,3,same,TRUE,l,0,l,270,0.901888965,2018_Apr_03_1538,59.95677375,18S051,661637493
5,38,3,same,TRUE,j,90,j,0,0.951577371,2018_Apr_03_1538,59.95677375,18S051,661637493
5,39,2,diff,TRUE,l,90,z,90,0.934822873,2018_Apr_03_1538,59.95677375,18S051,661637493
5,40,3,same,TRUE,l,90,l,180,1.385577726,2018_Apr_03_1538,59.95677375,18S051,661637493
5,41,2,diff,TRUE,j,0,l,270,1.403044064,2018_Apr_03_1538,59.95677375,18S051,661637493
5,42,3,same,TRUE,l,270,l,180,1.351749278,2018_Apr_03_1538,59.95677375,18S051,661637493
5,43,3,same,TRUE,j,270,j,270,0.751128387,2018_Apr_03_1538,59.95677375,18S051,661637493
5,44,3,same,TRUE,l,180,l,90,0.951642648,2018_Apr_03_1538,59.95677375,18S051,661637493
5,45,3,same,TRUE,l,90,l,270,1.535228243,2018_Apr_03_1538,59.95677375,18S051,661637493
5,46,3,same,TRUE,l,270,l,90,1.568645706,2018_Apr_03_1538,59.95677375,18S051,661637493
5,47,2,diff,TRUE,s,0,i,0,0.668094723,2018_Apr_03_1538,59.95677375,18S051,661637493
5,48,3,same,TRUE,j,0,j,90,1.10200938,2018_Apr_03_1538,59.95677375,18S051,661637493
5,49,2,diff,TRUE,z,0,t,270,0.751409914,2018_Apr_03_1538,59.95677375,18S051,661637493
5,50,2,diff,TRUE,j,270,l,0,2.502838426,2018_Apr_03_1538,59.95677375,18S051,661637493
5,51,3,same,TRUE,s,0,s,0,0.784555696,2018_Apr_03_1538,59.95677375,18S051,661637493
5,52,2,same,FALSE,j,90,j,90,0.516779478,2018_Apr_03_1538,59.95677375,18S051,661637493
5,53,2,diff,TRUE,z,0,j,270,0.668179327,2018_Apr_03_1538,59.95677375,18S051,661637493
5,54,3,same,TRUE,j,0,j,180,1.71852706,2018_Apr_03_1538,59.95677375,18S051,661637493
5,55,2,diff,TRUE,s,90,t,180,0.816057172,2018_Apr_03_1538,59.95677375,18S051,661637493
5,56,3,same,TRUE,j,0,j,0,0.517926007,2018_Apr_03_1538,59.95677375,18S051,661637493
5,57,2,diff,TRUE,i,0,t,0,0.601563204,2018_Apr_03_1538,59.95677375,18S051,661637493
5,58,3,same,TRUE,z,0,z,0,0.584622723,2018_Apr_03_1538,59.95677375,18S051,661637493
5,59,2,diff,TRUE,o,0,i,0,0.518033221,2018_Apr_03_1538,59.95677375,18S051,661637493
5,60,3,same,TRUE,l,180,l,180,0.568364179,2018_Apr_03_1538,59.95677375,18S051,661637493
6,0,3,same,TRUE,l,0,l,270,0.985172794,2018_Apr_03_1538,59.95677375,18S051,661637493
6,1,3,same,TRUE,j,180,j,0,2.100710783,2018_Apr_03_1538,59.95677375,18S051,661637493
6,2,3,same,TRUE,t,180,t,180,0.501196672,2018_Apr_03_1538,59.95677375,18S051,661637493
6,3,3,diff,FALSE,t,90,i,0,0.667995897,2018_Apr_03_1538,59.95677375,18S051,661637493
6,4,2,diff,TRUE,j,90,l,270,1.534855183,2018_Apr_03_1538,59.95677375,18S051,661637493
6,5,2,same,FALSE,j,90,j,270,1.902248532,2018_Apr_03_1538,59.95677375,18S051,661637493
6,6,3,same,TRUE,s,0,s,0,0.653869591,2018_Apr_03_1538,59.95677375,18S051,661637493
6,7,2,diff,TRUE,j,270,l,270,4.303787595,2018_Apr_03_1538,59.95677375,18S051,661637493
6,8,2,diff,TRUE,t,180,s,90,0.987386354,2018_Apr_03_1538,59.95677375,18S051,661637493
6,9,3,same,TRUE,z,0,z,90,1.418613378,2018_Apr_03_1538,59.95677375,18S051,661637493
6,10,2,diff,TRUE,t,180,j,270,0.617965793,2018_Apr_03_1538,59.95677375,18S051,661637493
6,11,2,diff,TRUE,s,0,j,180,0.81993072,2018_Apr_03_1538,59.95677375,18S051,661637493
6,12,3,same,TRUE,l,0,l,90,1.018439283,2018_Apr_03_1538,59.95677375,18S051,661637493
6,13,2,diff,TRUE,l,180,t,90,0.718511379,2018_Apr_03_1538,59.95677375,18S051,661637493
6,14,2,diff,TRUE,l,90,j,180,1.886107048,2018_Apr_03_1538,59.95677375,18S051,661637493
6,15,3,same,TRUE,l,180,l,270,1.335215406,2018_Apr_03_1538,59.95677375,18S051,661637493
6,16,3,same,TRUE,t,90,t,180,0.968140052,2018_Apr_03_1538,59.95677375,18S051,661637493
6,17,2,diff,TRUE,j,180,t,0,0.784191389,2018_Apr_03_1538,59.95677375,18S051,661637493
6,18,2,diff,TRUE,z,90,j,180,0.768201973,2018_Apr_03_1538,59.95677375,18S051,661637493
6,19,2,diff,TRUE,s,90,z,90,3.354354496,2018_Apr_03_1538,59.95677375,18S051,661637493
6,20,3,same,TRUE,t,90,t,90,0.534623981,2018_Apr_03_1538,59.95677375,18S051,661637493
6,21,3,same,TRUE,i,90,i,90,0.551665841,2018_Apr_03_1538,59.95677375,18S051,661637493
6,22,2,same,FALSE,j,0,j,270,0.737085226,2018_Apr_03_1538,59.95677375,18S051,661637493
6,23,2,diff,TRUE,i,0,s,90,0.55118812,2018_Apr_03_1538,59.95677375,18S051,661637493
6,24,2,diff,TRUE,t,0,j,180,0.834258324,2018_Apr_03_1538,59.95677375,18S051,661637493
6,25,2,diff,TRUE,t,90,j,180,0.667766518,2018_Apr_03_1538,59.95677375,18S051,661637493
6,26,2,diff,TRUE,j,0,t,270,0.651577991,2018_Apr_03_1538,59.95677375,18S051,661637493
6,27,3,same,TRUE,l,270,l,0,1.218803664,2018_Apr_03_1538,59.95677375,18S051,661637493
6,28,3,same,TRUE,t,0,t,180,0.668065914,2018_Apr_03_1538,59.95677375,18S051,661637493
6,29,2,diff,TRUE,o,0,s,0,0.567996225,2018_Apr_03_1538,59.95677375,18S051,661637493
6,30,3,same,TRUE,j,270,j,180,0.968468257,2018_Apr_03_1538,59.95677375,18S051,661637493
6,31,3,same,TRUE,j,270,j,0,0.900921125,2018_Apr_03_1538,59.95677375,18S051,661637493
6,32,3,same,TRUE,t,270,t,90,0.651510527,2018_Apr_03_1538,59.95677375,18S051,661637493
6,33,3,same,TRUE,t,270,t,0,0.635125077,2018_Apr_03_1538,59.95677375,18S051,661637493
6,34,3,same,TRUE,l,90,l,180,1.03507271,2018_Apr_03_1538,59.95677375,18S051,661637493
6,35,3,same,TRUE,t,180,t,90,0.73491178,2018_Apr_03_1538,59.95677375,18S051,661637493
6,36,2,diff,TRUE,s,0,t,0,0.668009754,2018_Apr_03_1538,59.95677375,18S051,661637493
6,37,2,diff,TRUE,o,0,j,0,0.584712797,2018_Apr_03_1538,59.95677375,18S051,661637493
6,38,2,diff,TRUE,z,0,l,0,0.600937426,2018_Apr_03_1538,59.95677375,18S051,661637493
6,39,2,diff,TRUE,i,0,j,270,0.551090753,2018_Apr_03_1538,59.95677375,18S051,661637493
6,40,3,same,TRUE,z,90,z,90,0.751866119,2018_Apr_03_1538,59.95677375,18S051,661637493
6,41,2,same,FALSE,t,90,t,0,0.583358405,2018_Apr_03_1538,59.95677375,18S051,661637493
6,42,3,same,TRUE,t,180,t,270,0.684734349,2018_Apr_03_1538,59.95677375,18S051,661637493
6,43,3,same,TRUE,t,270,t,180,0.635033544,2018_Apr_03_1538,59.95677375,18S051,661637493
6,44,3,same,TRUE,t,90,t,270,0.536701883,2018_Apr_03_1538,59.95677375,18S051,661637493
6,45,2,diff,TRUE,o,0,l,90,0.584511498,2018_Apr_03_1538,59.95677375,18S051,661637493
6,46,3,same,TRUE,l,180,l,0,1.268766303,2018_Apr_03_1538,59.95677375,18S051,661637493
6,47,2,diff,TRUE,j,270,o,0,0.553855332,2018_Apr_03_1538,59.95677375,18S051,661637493
6,48,3,diff,FALSE,s,0,t,270,0.618336665,2018_Apr_03_1538,59.95677375,18S051,661637493
6,49,2,diff,TRUE,j,0,s,90,0.601597118,2018_Apr_03_1538,59.95677375,18S051,661637493
6,50,3,same,TRUE,j,180,j,270,1.887143811,2018_Apr_03_1538,59.95677375,18S051,661637493
6,51,3,same,TRUE,s,90,s,0,1.334621355,2018_Apr_03_1538,59.95677375,18S051,661637493
6,52,2,diff,TRUE,t,270,l,270,0.60174007,2018_Apr_03_1538,59.95677375,18S051,661637493
6,53,2,diff,TRUE,l,90,t,270,0.786169371,2018_Apr_03_1538,59.95677375,18S051,661637493
6,54,2,diff,TRUE,l,0,t,0,0.634696952,2018_Apr_03_1538,59.95677375,18S051,661637493
6,55,3,same,TRUE,l,0,l,180,1.218843048,2018_Apr_03_1538,59.95677375,18S051,661637493
6,56,3,same,TRUE,l,270,l,180,2.703249484,2018_Apr_03_1538,59.95677375,18S051,661637493
6,57,2,diff,TRUE,z,90,l,0,0.717641271,2018_Apr_03_1538,59.95677375,18S051,661637493
6,58,2,diff,TRUE,s,90,i,90,0.601360081,2018_Apr_03_1538,59.95677375,18S051,661637493
6,59,2,diff,TRUE,l,0,o,0,0.534648049,2018_Apr_03_1538,59.95677375,18S051,661637493
7,0,2,diff,TRUE,z,0,t,90,0.885016314,2018_Apr_03_1538,59.95677375,18S051,661637493
7,1,3,same,TRUE,l,270,l,90,2.9543879,2018_Apr_03_1538,59.95677375,18S051,661637493
7,2,3,same,TRUE,s,90,s,90,0.56809104,2018_Apr_03_1538,59.95677375,18S051,661637493
7,3,3,same,TRUE,j,0,j,90,0.934413346,2018_Apr_03_1538,59.95677375,18S051,661637493
7,4,2,same,FALSE,o,0,o,0,0.619988265,2018_Apr_03_1538,59.95677375,18S051,661637493
7,5,2,diff,TRUE,z,90,j,90,0.718090547,2018_Apr_03_1538,59.95677375,18S051,661637493
7,6,2,diff,TRUE,t,90,j,90,0.768487511,2018_Apr_03_1538,59.95677375,18S051,661637493
7,7,3,same,TRUE,l,90,l,270,1.303461578,2018_Apr_03_1538,59.95677375,18S051,661637493
7,8,3,same,TRUE,j,180,j,180,0.634607243,2018_Apr_03_1538,59.95677375,18S051,661637493
7,9,2,diff,TRUE,j,90,z,0,0.818258333,2018_Apr_03_1538,59.95677375,18S051,661637493
7,10,3,same,TRUE,l,0,l,0,0.784812061,2018_Apr_03_1538,59.95677375,18S051,661637493
7,11,2,diff,TRUE,o,0,s,90,0.818148567,2018_Apr_03_1538,59.95677375,18S051,661637493
7,12,3,same,TRUE,i,0,i,0,0.751771669,2018_Apr_03_1538,59.95677375,18S051,661637493
7,13,3,same,TRUE,l,180,l,180,0.601398372,2018_Apr_03_1538,59.95677375,18S051,661637493
7,14,3,same,TRUE,j,90,j,90,0.568052749,2018_Apr_03_1538,59.95677375,18S051,661637493
7,15,3,same,TRUE,z,90,z,0,1.568768965,2018_Apr_03_1538,59.95677375,18S051,661637493
7,16,2,diff,TRUE,t,0,o,0,0.70144618,2018_Apr_03_1538,59.95677375,18S051,661637493
7,17,2,diff,TRUE,t,180,j,0,0.901404316,2018_Apr_03_1538,59.95677375,18S051,661637493
7,18,2,diff,TRUE,l,180,j,90,2.08575193,2018_Apr_03_1538,59.95677375,18S051,661637493
7,19,2,diff,TRUE,t,90,l,0,0.866663093,2018_Apr_03_1538,59.95677375,18S051,661637493
7,20,2,diff,TRUE,t,0,z,90,1.068339199,2018_Apr_03_1538,59.95677375,18S051,661637493
7,21,2,diff,TRUE,s,0,z,90,3.704414977,2018_Apr_03_1538,59.95677375,18S051,661637493
7,22,3,same,TRUE,z,0,z,0,0.801363436,2018_Apr_03_1538,59.95677375,18S051,661637493
7,23,2,diff,TRUE,s,90,j,180,0.66838719,2018_Apr_03_1538,59.95677375,18S051,661637493
7,24,2,diff,TRUE,i,90,t,0,0.619502522,2018_Apr_03_1538,59.95677375,18S051,661637493
7,25,3,same,TRUE,i,90,i,0,0.717982969,2018_Apr_03_1538,59.95677375,18S051,661637493
7,26,3,same,TRUE,j,270,j,270,0.701739012,2018_Apr_03_1538,59.95677375,18S051,661637493
7,27,3,same,TRUE,j,90,j,0,1.270079488,2018_Apr_03_1538,59.95677375,18S051,661637493
7,28,3,same,TRUE,l,180,l,90,0.834864409,2018_Apr_03_1538,59.95677375,18S051,661637493
7,29,3,same,TRUE,s,0,s,90,1.151712008,2018_Apr_03_1538,59.95677375,18S051,661637493
7,30,3,same,TRUE,l,90,l,0,0.902435974,2018_Apr_03_1538,59.95677375,18S051,661637493
7,31,3,same,TRUE,l,270,l,270,0.634833339,2018_Apr_03_1538,59.95677375,18S051,661637493
7,32,3,same,TRUE,j,180,j,90,0.718273613,2018_Apr_03_1538,59.95677375,18S051,661637493
7,33,2,diff,TRUE,o,0,z,0,0.67005046,2018_Apr_03_1538,59.95677375,18S051,661637493
7,34,2,diff,TRUE,l,270,s,90,0.951574454,2018_Apr_03_1538,59.95677375,18S051,661637493
7,35,3,same,TRUE,j,0,j,180,1.351216127,2018_Apr_03_1538,59.95677375,18S051,661637493
7,36,2,diff,TRUE,s,0,t,180,0.686105881,2018_Apr_03_1538,59.95677375,18S051,661637493
7,37,2,diff,TRUE,i,0,l,180,0.834767042,2018_Apr_03_1538,59.95677375,18S051,661637493
7,38,2,diff,TRUE,s,90,t,270,0.785203719,2018_Apr_03_1538,59.95677375,18S051,661637493
7,39,3,same,TRUE,j,0,j,0,0.753189514,2018_Apr_03_1538,59.95677375,18S051,661637493
7,40,2,diff,TRUE,z,90,s,0,3.153165591,2018_Apr_03_1538,59.95677375,18S051,661637493
7,41,3,same,TRUE,t,180,t,0,0.784742773,2018_Apr_03_1538,59.95677375,18S051,661637493
7,42,3,same,TRUE,j,90,j,180,1.601820662,2018_Apr_03_1538,59.95677375,18S051,661637493
7,43,2,diff,TRUE,l,90,i,0,1.18535958,2018_Apr_03_1538,59.95677375,18S051,661637493
7,44,2,diff,TRUE,s,90,t,90,0.9696487,2018_Apr_03_1538,59.95677375,18S051,661637493
7,45,2,diff,TRUE,l,270,i,0,0.734680578,2018_Apr_03_1538,59.95677375,18S051,661637493
7,46,3,same,TRUE,l,90,l,90,0.751824911,2018_Apr_03_1538,59.95677375,18S051,661637493
7,47,2,diff,TRUE,l,90,t,0,1.103458587,2018_Apr_03_1538,59.95677375,18S051,661637493
7,48,3,same,TRUE,t,0,t,90,0.935106953,2018_Apr_03_1538,59.95677375,18S051,661637493
7,49,2,diff,TRUE,i,0,t,180,0.584711338,2018_Apr_03_1538,59.95677375,18S051,661637493
7,50,3,same,TRUE,t,0,t,270,1.369854886,2018_Apr_03_1538,59.95677375,18S051,661637493
7,51,2,diff,TRUE,s,90,z,0,2.702839957,2018_Apr_03_1538,59.95677375,18S051,661637493
7,52,2,same,FALSE,j,270,j,90,1.235022823,2018_Apr_03_1538,59.95677375,18S051,661637493
7,53,2,diff,TRUE,j,90,o,0,1.218484576,2018_Apr_03_1538,59.95677375,18S051,661637493
7,54,3,same,TRUE,t,0,t,0,0.584990677,2018_Apr_03_1538,59.95677375,18S051,661637493
7,55,2,diff,TRUE,i,90,j,0,0.801569841,2018_Apr_03_1538,59.95677375,18S051,661637493
7,56,3,same,TRUE,t,270,t,270,0.551179733,2018_Apr_03_1538,59.95677375,18S051,661637493
7,57,2,diff,TRUE,z,90,t,180,0.734635359,2018_Apr_03_1538,59.95677375,18S051,661637493
7,58,2,diff,TRUE,j,180,o,0,0.617953394,2018_Apr_03_1538,59.95677375,18S051,661637493
7,59,3,same,TRUE,i,0,i,90,0.918360113,2018_Apr_03_1538,59.95677375,18S051,661637493
7,60,2,diff,TRUE,l,270,z,0,0.71817114,2018_Apr_03_1538,59.95677375,18S051,661637493
8,0,2,diff,TRUE,s,90,o,0,0.618310773,2018_Apr_03_1538,59.95677375,18S051,661637493
8,1,3,same,TRUE,t,0,t,270,0.666487977,2018_Apr_03_1538,59.95677375,18S051,661637493
8,2,3,same,TRUE,j,0,j,270,0.851529927,2018_Apr_03_1538,59.95677375,18S051,661637493
8,3,2,diff,TRUE,j,270,z,90,0.701784961,2018_Apr_03_1538,59.95677375,18S051,661637493
8,4,3,same,TRUE,t,180,t,0,0.603229026,2018_Apr_03_1538,59.95677375,18S051,661637493
8,5,2,diff,TRUE,i,90,o,0,0.53458642,2018_Apr_03_1538,59.95677375,18S051,661637493
8,6,3,same,TRUE,t,0,t,90,0.551615151,2018_Apr_03_1538,59.95677375,18S051,661637493
8,7,2,diff,TRUE,z,0,j,180,0.768262509,2018_Apr_03_1538,59.95677375,18S051,661637493
8,8,3,same,TRUE,l,270,l,0,1.568665763,2018_Apr_03_1538,59.95677375,18S051,661637493
8,9,3,same,TRUE,i,90,i,0,0.735133136,2018_Apr_03_1538,59.95677375,18S051,661637493
8,10,3,same,TRUE,s,0,s,0,0.654481876,2018_Apr_03_1538,59.95677375,18S051,661637493
8,11,2,diff,TRUE,t,180,i,0,0.717931186,2018_Apr_03_1538,59.95677375,18S051,661637493
8,12,2,diff,TRUE,l,180,j,180,4.070567346,2018_Apr_03_1538,59.95677375,18S051,661637493
8,13,2,diff,TRUE,j,90,t,0,0.601502303,2018_Apr_03_1538,59.95677375,18S051,661637493
8,14,3,same,TRUE,t,0,t,0,0.668362392,2018_Apr_03_1538,59.95677375,18S051,661637493
8,15,3,same,TRUE,l,270,l,270,0.534555787,2018_Apr_03_1538,59.95677375,18S051,661637493
8,16,2,diff,TRUE,t,180,j,90,1.08518997,2018_Apr_03_1538,59.95677375,18S051,661637493
8,17,3,same,TRUE,l,90,l,90,0.684847397,2018_Apr_03_1538,59.95677375,18S051,661637493
8,18,3,same,TRUE,j,180,j,180,0.618240756,2018_Apr_03_1538,59.95677375,18S051,661637493
8,19,2,diff,TRUE,j,90,t,180,0.801608131,2018_Apr_03_1538,59.95677375,18S051,661637493
8,20,2,diff,TRUE,t,270,s,90,1.035086203,2018_Apr_03_1538,59.95677375,18S051,661637493
8,21,2,diff,TRUE,t,270,o,0,0.601448332,2018_Apr_03_1538,59.95677375,18S051,661637493
8,22,3,same,TRUE,t,90,t,180,0.735037957,2018_Apr_03_1538,59.95677375,18S051,661637493
8,23,2,diff,TRUE,j,0,o,0,0.684522475,2018_Apr_03_1538,59.95677375,18S051,661637493
8,24,3,same,TRUE,j,90,j,270,1.418544819,2018_Apr_03_1538,59.95677375,18S051,661637493
8,25,2,diff,TRUE,j,180,l,0,2.602343237,2018_Apr_03_1538,59.95677375,18S051,661637493
8,26,3,same,TRUE,j,270,j,90,3.269990872,2018_Apr_03_1538,59.95677375,18S051,661637493
8,27,2,diff,TRUE,s,90,j,270,0.751306347,2018_Apr_03_1538,59.95677375,18S051,661637493
8,28,3,same,TRUE,t,270,t,270,0.60170105,2018_Apr_03_1538,59.95677375,18S051,661637493
8,29,2,diff,TRUE,l,180,z,90,0.739315926,2018_Apr_03_1538,59.95677375,18S051,661637493
8,30,3,same,TRUE,l,90,l,0,0.901548362,2018_Apr_03_1538,59.95677375,18S051,661637493
8,31,3,same,TRUE,t,180,t,180,0.567878436,2018_Apr_03_1538,59.95677375,18S051,661637493
8,32,2,diff,TRUE,l,0,j,270,2.404449876,2018_Apr_03_1538,59.95677375,18S051,661637493
8,33,2,diff,TRUE,l,270,s,0,0.784727821,2018_Apr_03_1538,59.95677375,18S051,661637493
8,34,2,diff,TRUE,l,90,j,270,2.969655629,2018_Apr_03_1538,59.95677375,18S051,661637493
8,35,3,same,TRUE,j,0,j,180,3.753962619,2018_Apr_03_1538,59.95677375,18S051,661637493
8,36,2,diff,TRUE,j,90,i,90,0.801469921,2018_Apr_03_1538,59.95677375,18S051,661637493
8,37,2,diff,TRUE,t,90,z,90,0.667584547,2018_Apr_03_1538,59.95677375,18S051,661637493
8,38,2,diff,TRUE,s,90,l,180,0.601245574,2018_Apr_03_1538,59.95677375,18S051,661637493
8,39,3,same,TRUE,l,0,l,0,0.601480058,2018_Apr_03_1538,59.95677375,18S051,661637493
8,40,2,diff,TRUE,o,0,t,0,0.583408729,2018_Apr_03_1538,59.95677375,18S051,661637493
8,41,3,same,TRUE,j,270,j,180,1.068464282,2018_Apr_03_1538,59.95677375,18S051,661637493
8,42,3,diff,FALSE,l,270,j,0,0.718506274,2018_Apr_03_1538,59.95677375,18S051,661637493
8,43,3,same,TRUE,l,0,l,270,1.066267132,2018_Apr_03_1538,59.95677375,18S051,661637493
8,44,2,diff,TRUE,s,90,t,0,0.700899537,2018_Apr_03_1538,59.95677375,18S051,661637493
8,45,2,diff,TRUE,l,0,j,90,2.102353266,2018_Apr_03_1538,59.95677375,18S051,661637493
8,46,3,same,TRUE,j,90,j,180,0.83440164,2018_Apr_03_1538,59.95677375,18S051,661637493
8,47,3,same,TRUE,j,180,j,90,0.851742531,2018_Apr_03_1538,59.95677375,18S051,661637493
8,48,2,diff,TRUE,o,0,t,90,0.551403641,2018_Apr_03_1538,59.95677375,18S051,661637493
8,49,3,same,TRUE,l,90,l,270,1.868515992,2018_Apr_03_1538,59.95677375,18S051,661637493
8,50,3,same,TRUE,l,270,l,90,1.268579226,2018_Apr_03_1538,59.95677375,18S051,661637493
8,51,2,same,FALSE,t,270,t,180,1.869772288,2018_Apr_03_1538,59.95677375,18S051,661637493
8,52,3,same,TRUE,z,90,z,0,2.052443139,2018_Apr_03_1538,59.95677375,18S051,661637493
8,53,3,same,TRUE,i,90,i,90,0.534150272,2018_Apr_03_1538,59.95677375,18S051,661637493
8,54,3,same,TRUE,l,270,l,180,0.767567079,2018_Apr_03_1538,59.95677375,18S051,661637493
8,55,3,same,TRUE,t,270,t,0,0.58463731,2018_Apr_03_1538,59.95677375,18S051,661637493
8,56,2,diff,TRUE,s,90,l,90,0.78525222,2018_Apr_03_1538,59.95677375,18S051,661637493
8,57,2,diff,TRUE,s,0,l,180,0.783316905,2018_Apr_03_1538,59.95677375,18S051,661637493
8,58,2,diff,TRUE,l,0,t,180,0.701289736,2018_Apr_03_1538,59.95677375,18S051,661637493
8,59,3,same,TRUE,l,180,l,270,1.102639534,2018_Apr_03_1538,59.95677375,18S051,661637493
9,0,3,same,TRUE,l,0,l,90,0.884909829,2018_Apr_03_1538,59.95677375,18S051,661637493
9,1,3,same,TRUE,t,180,t,90,0.551428439,2018_Apr_03_1538,59.95677375,18S051,661637493
9,2,3,same,TRUE,t,90,t,270,0.784945166,2018_Apr_03_1538,59.95677375,18S051,661637493
9,3,2,diff,TRUE,j,180,l,180,2.271219817,2018_Apr_03_1538,59.95677375,18S051,661637493
9,4,2,diff,TRUE,t,0,l,0,0.934961084,2018_Apr_03_1538,59.95677375,18S051,661637493
9,5,3,same,TRUE,j,90,j,0,0.785158499,2018_Apr_03_1538,59.95677375,18S051,661637493
9,6,3,same,TRUE,z,0,z,90,1.136685692,2018_Apr_03_1538,59.95677375,18S051,661637493
9,7,3,same,TRUE,s,90,s,90,0.75145878,2018_Apr_03_1538,59.95677375,18S051,661637493
9,8,3,same,TRUE,j,180,j,0,0.968617043,2018_Apr_03_1538,59.95677375,18S051,661637493
9,9,3,same,TRUE,j,90,j,90,0.653438184,2018_Apr_03_1538,59.95677375,18S051,661637493
9,10,3,same,TRUE,l,180,l,0,1.501814062,2018_Apr_03_1538,59.95677375,18S051,661637493
9,11,3,same,TRUE,j,0,j,0,0.584243464,2018_Apr_03_1538,59.95677375,18S051,661637493
9,12,3,same,TRUE,j,270,j,270,0.536217234,2018_Apr_03_1538,59.95677375,18S051,661637493
9,13,2,diff,TRUE,l,0,z,90,0.918045766,2018_Apr_03_1538,59.95677375,18S051,661637493
9,14,2,diff,TRUE,l,180,j,0,1.852525482,2018_Apr_03_1538,59.95677375,18S051,661637493
9,15,3,same,TRUE,s,0,s,90,1.233555018,2018_Apr_03_1538,59.95677375,18S051,661637493
9,16,2,diff,TRUE,z,90,l,180,0.718082525,2018_Apr_03_1538,59.95677375,18S051,661637493
9,17,2,same,FALSE,o,0,o,0,0.634711174,2018_Apr_03_1538,59.95677375,18S051,661637493
9,18,2,diff,TRUE,l,0,i,90,0.666549242,2018_Apr_03_1538,59.95677375,18S051,661637493
9,19,2,diff,TRUE,j,0,i,0,0.567994402,2018_Apr_03_1538,59.95677375,18S051,661637493
9,20,3,same,TRUE,l,90,l,180,1.368839639,2018_Apr_03_1538,59.95677375,18S051,661637493
9,21,3,same,TRUE,t,0,t,180,0.766516823,2018_Apr_03_1538,59.95677375,18S051,661637493
9,22,3,same,TRUE,i,0,i,90,0.517878235,2018_Apr_03_1538,59.95677375,18S051,661637493
9,23,2,diff,TRUE,o,0,t,180,0.70159679,2018_Apr_03_1538,59.95677375,18S051,661637493
9,24,2,diff,TRUE,l,90,s,0,0.786071638,2018_Apr_03_1538,59.95677375,18S051,661637493
9,25,2,diff,TRUE,i,0,s,0,0.651148772,2018_Apr_03_1538,59.95677375,18S051,661637493
9,26,2,diff,TRUE,t,0,s,0,0.76852799,2018_Apr_03_1538,59.95677375,18S051,661637493
9,27,3,same,TRUE,l,180,l,180,0.554389577,2018_Apr_03_1538,59.95677375,18S051,661637493
9,28,2,diff,TRUE,z,0,s,0,2.636341623,2018_Apr_03_1538,59.95677375,18S051,661637493
9,29,2,diff,TRUE,j,270,s,0,1.535401827,2018_Apr_03_1538,59.95677375,18S051,661637493
9,30,3,same,TRUE,t,90,t,90,0.935034383,2018_Apr_03_1538,59.95677375,18S051,661637493
9,31,2,diff,TRUE,z,90,o,0,0.55128804,2018_Apr_03_1538,59.95677375,18S051,661637493
9,32,2,diff,TRUE,o,0,l,0,0.567919644,2018_Apr_03_1538,59.95677375,18S051,661637493
9,33,2,diff,TRUE,z,0,t,180,0.784641759,2018_Apr_03_1538,59.95677375,18S051,661637493
9,34,3,same,TRUE,j,0,j,90,0.901446983,2018_Apr_03_1538,59.95677375,18S051,661637493
9,35,2,diff,TRUE,o,0,j,90,0.651372681,2018_Apr_03_1538,59.95677375,18S051,661637493
9,36,3,same,TRUE,z,0,z,0,0.534048893,2018_Apr_03_1538,59.95677375,18S051,661637493
9,37,2,diff,TRUE,l,180,i,90,0.751615224,2018_Apr_03_1538,59.95677375,18S051,661637493
9,38,3,same,TRUE,l,0,l,180,1.502053651,2018_Apr_03_1538,59.95677375,18S051,661637493
9,39,3,same,TRUE,z,90,z,90,0.617988403,2018_Apr_03_1538,59.95677375,18S051,661637493
9,40,3,same,TRUE,i,0,i,0,0.53465279,2018_Apr_03_1538,59.95677375,18S051,661637493
9,41,2,diff,TRUE,t,90,j,270,0.801806513,2018_Apr_03_1538,59.95677375,18S051,661637493
9,42,3,same,TRUE,j,180,j,270,1.533844677,2018_Apr_03_1538,59.95677375,18S051,661637493
9,43,3,same,TRUE,t,180,t,270,0.584722643,2018_Apr_03_1538,59.95677375,18S051,661637493
9,44,2,diff,TRUE,t,180,z,90,0.851456993,2018_Apr_03_1538,59.95677375,18S051,661637493
9,45,2,diff,TRUE,l,270,t,180,0.600622714,2018_Apr_03_1538,59.95677375,18S051,661637493
9,46,2,diff,TRUE,i,0,l,270,1.301783356,2018_Apr_03_1538,59.95677375,18S051,661637493
9,47,2,diff,TRUE,s,0,l,90,0.651304487,2018_Apr_03_1538,59.95677375,18S051,661637493
9,48,2,diff,TRUE,t,180,l,270,0.550060189,2018_Apr_03_1538,59.95677375,18S051,661637493
9,49,2,diff,TRUE,s,0,j,0,0.567904692,2018_Apr_03_1538,59.95677375,18S051,661637493
9,50,2,diff,TRUE,l,0,j,0,3.805128676,2018_Apr_03_1538,59.95677375,18S051,661637493
9,51,3,same,TRUE,t,270,t,90,0.60130064,2018_Apr_03_1538,59.95677375,18S051,661637493
9,52,2,diff,TRUE,i,0,t,270,0.517890999,2018_Apr_03_1538,59.95677375,18S051,661637493
9,53,2,diff,TRUE,o,0,l,270,0.568105627,2018_Apr_03_1538,59.95677375,18S051,661637493
9,54,2,diff,TRUE,i,90,l,0,0.684712833,2018_Apr_03_1538,59.95677375,18S051,661637493
9,55,2,diff,TRUE,j,270,t,90,0.75158058,2018_Apr_03_1538,59.95677375,18S051,661637493
9,56,2,same,FALSE,l,180,l,90,0.634643345,2018_Apr_03_1538,59.95677375,18S051,661637493
9,57,3,same,TRUE,j,270,j,0,1.185074771,2018_Apr_03_1538,59.95677375,18S051,661637493
9,58,3,same,TRUE,s,90,s,0,1.085385435,2018_Apr_03_1538,59.95677375,18S051,661637493
9,59,3,same,TRUE,t,90,t,0,0.684762064,2018_Apr_03_1538,59.95677375,18S051,661637493
9,60,2,diff,TRUE,j,180,t,270,0.751450028,2018_Apr_03_1538,59.95677375,18S051,661637493
