trials.thisRepN,trials.thisTrialN,trials.thisN,trials.thisIndex,Block_Number,Trial_Number,Subject_Key,Correct_Key,Subject_Response,Correct_Response,Answered_Correctly,Left_Zoid,Left_Zoid_Orientation,Right_Zoid,Right_Zoid_Orientation,Response.rt,date,frameRate,expName,session,participant,
0,0,0,0,0,0,m,x,yes,no,False,o,0,j,180,2.10096368566,2018_01_25_1230,50.3590140915,PL-Tetris_2,001,0,
1,0,1,0,0,1,m,m,yes,yes,True,j,0,j,0,0.981679666555,2018_01_25_1230,50.3590140915,PL-Tetris_2,001,0,
2,0,2,0,0,2,m,m,yes,yes,True,j,180,j,270,0.260330514051,2018_01_25_1230,50.3590140915,PL-Tetris_2,001,0,
3,0,3,0,0,3,m,m,yes,yes,True,j,180,j,90,0.0583522040397,2018_01_25_1230,50.3590140915,PL-Tetris_2,001,0,
4,0,4,0,0,4,m,m,yes,yes,True,j,180,j,0,0.301723276032,2018_01_25_1230,50.3590140915,PL-Tetris_2,001,0,
5,0,5,0,0,5,m,m,yes,yes,True,t,180,t,0,0.0396532539744,2018_01_25_1230,50.3590140915,PL-Tetris_2,001,0,
6,0,6,0,0,6,m,x,yes,no,False,l,90,j,0,0.621175771812,2018_01_25_1230,50.3590140915,PL-Tetris_2,001,0,
7,0,7,0,0,7,m,x,yes,no,False,l,180,t,180,0.562846376328,2018_01_25_1230,50.3590140915,PL-Tetris_2,001,0,
8,0,8,0,0,8,m,m,yes,yes,True,j,90,j,90,0.120781379752,2018_01_25_1230,50.3590140915,PL-Tetris_2,001,0,
9,0,9,0,0,9,m,x,yes,no,False,j,0,t,180,0.981648495421,2018_01_25_1230,50.3590140915,PL-Tetris_2,001,0,
10,0,10,0,0,10,m,x,yes,no,False,l,270,j,0,0.10269521107,2018_01_25_1230,50.3590140915,PL-Tetris_2,001,0,
11,0,11,0,0,11,m,m,yes,yes,True,z,90,z,90,0.382529045455,2018_01_25_1230,50.3590140915,PL-Tetris_2,001,0,
12,0,12,0,0,12,m,m,yes,yes,True,l,90,l,90,0.301928170025,2018_01_25_1230,50.3590140915,PL-Tetris_2,001,0,
13,0,13,0,0,13,m,m,yes,yes,True,l,0,l,270,0.0609496815596,2018_01_25_1230,50.3590140915,PL-Tetris_2,001,0,
14,0,14,0,0,14,m,m,yes,yes,True,l,90,l,270,0.0409689089283,2018_01_25_1230,50.3590140915,PL-Tetris_2,001,0,
15,0,15,0,0,15,m,m,yes,yes,True,i,0,i,90,1.38142436673,2018_01_25_1230,50.3590140915,PL-Tetris_2,001,0,
16,0,16,0,0,16,m,m,yes,yes,True,j,270,j,0,0.121324975975,2018_01_25_1230,50.3590140915,PL-Tetris_2,001,0,
17,0,17,0,0,17,m,x,yes,no,False,t,270,j,0,3.84090344934,2018_01_25_1230,50.3590140915,PL-Tetris_2,001,0,
18,0,18,0,0,18,m,x,yes,no,False,t,270,j,90,1.11996598518,2018_01_25_1230,50.3590140915,PL-Tetris_2,001,0,
19,0,19,0,0,19,m,x,yes,no,False,l,0,t,270,0.440791536821,2018_01_25_1230,50.3590140915,PL-Tetris_2,001,0,
20,0,20,0,0,20,m,m,yes,yes,True,t,270,t,90,0.0198560876306,2018_01_25_1230,50.3590140915,PL-Tetris_2,001,0,
21,0,21,0,0,21,m,m,yes,yes,True,l,180,l,90,0.162037672475,2018_01_25_1230,50.3590140915,PL-Tetris_2,001,0,
22,0,22,0,0,22,m,x,yes,no,False,l,270,t,90,0.243034650804,2018_01_25_1230,50.3590140915,PL-Tetris_2,001,0,
23,0,23,0,0,23,m,m,yes,yes,True,t,0,t,270,0.643020737683,2018_01_25_1230,50.3590140915,PL-Tetris_2,001,0,
24,0,24,0,0,24,m,m,yes,yes,True,l,270,l,90,0.121117040748,2018_01_25_1230,50.3590140915,PL-Tetris_2,001,0,
25,0,25,0,0,25,m,x,yes,no,False,i,0,l,0,0.601513934322,2018_01_25_1230,50.3590140915,PL-Tetris_2,001,0,
26,0,26,0,0,26,m,x,yes,no,False,j,0,i,0,0.382711891551,2018_01_25_1230,50.3590140915,PL-Tetris_2,001,0,
27,0,27,0,0,27,m,x,yes,no,False,z,0,o,0,0.301317289472,2018_01_25_1230,50.3590140915,PL-Tetris_2,001,0,
28,0,28,0,0,28,m,m,yes,yes,True,l,180,l,270,0.0222874453757,2018_01_25_1230,50.3590140915,PL-Tetris_2,001,0,
29,0,29,0,0,29,m,m,yes,yes,True,s,0,s,90,0.18287413381,2018_01_25_1230,50.3590140915,PL-Tetris_2,001,0,
30,0,30,0,0,30,m,x,yes,no,False,l,270,z,0,0.102760974551,2018_01_25_1230,50.3590140915,PL-Tetris_2,001,0,
31,0,31,0,0,31,m,m,yes,yes,True,t,180,t,180,1.30153890932,2018_01_25_1230,50.3590140915,PL-Tetris_2,001,0,
32,0,32,0,0,32,m,m,yes,yes,True,o,0,o,0,0.240786138922,2018_01_25_1230,50.3590140915,PL-Tetris_2,001,0,
33,0,33,0,0,33,m,m,yes,yes,True,j,90,j,0,0.101302768337,2018_01_25_1230,50.3590140915,PL-Tetris_2,001,0,
34,0,34,0,0,34,m,m,yes,yes,True,l,0,l,180,0.263156834524,2018_01_25_1230,50.3590140915,PL-Tetris_2,001,0,
35,0,35,0,0,35,m,m,yes,yes,True,j,90,j,270,0.942667324096,2018_01_25_1230,50.3590140915,PL-Tetris_2,001,0,
36,0,36,0,0,36,m,m,yes,yes,True,t,90,t,270,0.821069409605,2018_01_25_1230,50.3590140915,PL-Tetris_2,001,0,
37,0,37,0,0,37,m,x,yes,no,False,s,0,j,270,0.620992926182,2018_01_25_1230,50.3590140915,PL-Tetris_2,001,0,
38,0,38,0,0,38,m,x,yes,no,False,t,270,l,0,0.242146650096,2018_01_25_1230,50.3590140915,PL-Tetris_2,001,0,
39,0,39,0,0,39,m,x,yes,no,False,t,0,l,90,0.399784614332,2018_01_25_1230,50.3590140915,PL-Tetris_2,001,0,
40,0,40,0,0,40,m,m,yes,yes,True,z,90,z,0,0.060322835343,2018_01_25_1230,50.3590140915,PL-Tetris_2,001,0,
41,0,41,0,0,41,m,x,yes,no,False,t,180,j,180,0.36031420622,2018_01_25_1230,50.3590140915,PL-Tetris_2,001,0,
42,0,42,0,0,42,m,m,yes,yes,True,j,270,j,270,0.600054967683,2018_01_25_1230,50.3590140915,PL-Tetris_2,001,0,
43,0,43,0,0,43,m,m,yes,yes,True,j,270,j,180,0.14023604244,2018_01_25_1230,50.3590140915,PL-Tetris_2,001,0,
44,0,44,0,0,44,m,m,yes,yes,True,j,270,j,90,1.38074658206,2018_01_25_1230,50.3590140915,PL-Tetris_2,001,0,
45,0,45,0,0,45,m,m,yes,yes,True,t,90,t,90,0.122975531733,2018_01_25_1230,50.3590140915,PL-Tetris_2,001,0,
46,0,46,0,0,46,m,x,yes,no,False,t,90,s,90,0.0431725643575,2018_01_25_1230,50.3590140915,PL-Tetris_2,001,0,
47,0,47,0,0,47,m,m,yes,yes,True,j,90,j,180,0.380975424545,2018_01_25_1230,50.3590140915,PL-Tetris_2,001,0,
48,0,48,0,0,48,m,x,yes,no,False,z,0,l,90,0.520375545137,2018_01_25_1230,50.3590140915,PL-Tetris_2,001,0,
49,0,49,0,0,49,m,x,yes,no,False,t,0,s,0,0.439454594394,2018_01_25_1230,50.3590140915,PL-Tetris_2,001,0,
50,0,50,0,0,50,m,x,yes,no,False,s,90,o,0,0.400305022253,2018_01_25_1230,50.3590140915,PL-Tetris_2,001,0,
51,0,51,0,0,51,m,m,yes,yes,True,t,270,t,180,0.644206385594,2018_01_25_1230,50.3590140915,PL-Tetris_2,001,0,
52,0,52,0,0,52,m,x,yes,no,False,z,90,l,0,0.142222259426,2018_01_25_1230,50.3590140915,PL-Tetris_2,001,0,
53,0,53,0,0,53,m,m,yes,yes,True,l,270,l,270,0.262119439896,2018_01_25_1230,50.3590140915,PL-Tetris_2,001,0,
54,0,54,0,0,54,m,x,yes,no,False,i,0,s,90,0.180838498985,2018_01_25_1230,50.3590140915,PL-Tetris_2,001,0,
55,0,55,0,0,55,m,x,yes,no,False,i,0,z,0,0.0235658467282,2018_01_25_1230,50.3590140915,PL-Tetris_2,001,0,
56,0,56,0,0,56,m,x,yes,no,False,j,180,l,180,0.0827577738091,2018_01_25_1230,50.3590140915,PL-Tetris_2,001,0,
57,0,57,0,0,57,m,m,yes,yes,True,t,270,t,270,0.519332068507,2018_01_25_1230,50.3590140915,PL-Tetris_2,001,0,
58,0,58,0,0,58,m,x,yes,no,False,z,90,l,180,0.341256786836,2018_01_25_1230,50.3590140915,PL-Tetris_2,001,0,
59,0,59,0,0,59,m,x,yes,no,False,z,90,t,90,0.00117804529145,2018_01_25_1230,50.3590140915,PL-Tetris_2,001,0,
60,0,60,0,0,60,m,x,yes,no,False,o,0,t,180,0.0405442956835,2018_01_25_1230,50.3590140915,PL-Tetris_2,001,0,
61,0,61,0,0,61,m,m,yes,yes,True,l,270,l,0,0.639184012776,2018_01_25_1230,50.3590140915,PL-Tetris_2,001,0,
62,0,62,0,0,62,m,m,yes,yes,True,t,0,t,180,0.403095989488,2018_01_25_1230,50.3590140915,PL-Tetris_2,001,0,
63,0,63,0,0,63,m,x,yes,no,False,s,90,z,0,0.401042868616,2018_01_25_1230,50.3590140915,PL-Tetris_2,001,0,
64,0,64,0,0,64,m,m,yes,yes,True,j,180,j,180,0.242299085017,2018_01_25_1230,50.3590140915,PL-Tetris_2,001,0,
65,0,65,0,0,65,m,m,yes,yes,True,t,0,t,0,0.121603996493,2018_01_25_1230,50.3590140915,PL-Tetris_2,001,0,
66,0,66,0,0,66,m,x,yes,no,False,o,0,t,0,0.400314525468,2018_01_25_1230,50.3590140915,PL-Tetris_2,001,0,
67,0,67,0,0,67,m,x,yes,no,False,s,90,z,90,0.679584616562,2018_01_25_1230,50.3590140915,PL-Tetris_2,001,0,
68,0,68,0,0,68,m,x,yes,no,False,z,90,j,0,0.600993526634,2018_01_25_1230,50.3590140915,PL-Tetris_2,001,0,
69,0,69,0,0,69,m,m,yes,yes,True,t,180,t,270,0.658636014443,2018_01_25_1230,50.3590140915,PL-Tetris_2,001,0,
70,0,70,0,0,70,m,x,yes,no,False,l,90,j,270,0.123030651594,2018_01_25_1230,50.3590140915,PL-Tetris_2,001,0,
71,0,71,0,0,71,m,x,yes,no,False,t,270,l,270,0.579815321835,2018_01_25_1230,50.3590140915,PL-Tetris_2,001,0,
72,0,72,0,0,72,m,x,yes,no,False,l,180,i,0,0.0215530202258,2018_01_25_1230,50.3590140915,PL-Tetris_2,001,0,
73,0,73,0,0,73,m,x,yes,no,False,t,0,i,90,0.301359484904,2018_01_25_1230,50.3590140915,PL-Tetris_2,001,0,
74,0,74,0,0,74,m,x,yes,no,False,l,0,s,0,0.679922178388,2018_01_25_1230,50.3590140915,PL-Tetris_2,001,0,
75,0,75,0,0,75,m,m,yes,yes,True,z,0,z,90,0.0808422625996,2018_01_25_1230,50.3590140915,PL-Tetris_2,001,0,
76,0,76,0,0,76,m,x,yes,no,False,o,0,z,90,0.000471370061859,2018_01_25_1230,50.3590140915,PL-Tetris_2,001,0,
77,0,77,0,0,77,m,m,yes,yes,True,l,0,l,0,0.239923607558,2018_01_25_1230,50.3590140915,PL-Tetris_2,001,0,
78,0,78,0,0,78,m,x,yes,no,False,z,0,l,270,0.180994355353,2018_01_25_1230,50.3590140915,PL-Tetris_2,001,0,
79,0,79,0,0,79,m,x,yes,no,False,t,180,s,90,0.501368303783,2018_01_25_1230,50.3590140915,PL-Tetris_2,001,0,
80,0,80,0,0,80,m,x,yes,no,False,o,0,s,90,0.919820316834,2018_01_25_1230,50.3590140915,PL-Tetris_2,001,0,
81,0,81,0,0,81,m,m,yes,yes,True,s,0,s,0,0.180446197512,2018_01_25_1230,50.3590140915,PL-Tetris_2,001,0,
82,0,82,0,0,82,m,x,yes,no,False,s,0,t,0,0.280398338102,2018_01_25_1230,50.3590140915,PL-Tetris_2,001,0,
83,0,83,0,0,83,m,x,yes,no,False,j,270,t,0,0.32067273627,2018_01_25_1230,50.3590140915,PL-Tetris_2,001,0,
84,0,84,0,0,84,m,m,yes,yes,True,z,0,z,0,0.122472230112,2018_01_25_1230,50.3590140915,PL-Tetris_2,001,0,
85,0,85,0,0,85,m,x,yes,no,False,j,180,l,0,0.000752671854571,2018_01_25_1230,50.3590140915,PL-Tetris_2,001,0,
86,0,86,0,0,86,m,m,yes,yes,True,i,0,i,0,0.34030872467,2018_01_25_1230,50.3590140915,PL-Tetris_2,001,0,
87,0,87,0,0,87,m,m,yes,yes,True,s,90,s,90,1.32029564027,2018_01_25_1230,50.3590140915,PL-Tetris_2,001,0,
88,0,88,0,0,88,m,m,yes,yes,True,j,0,j,270,0.0205281702802,2018_01_25_1230,50.3590140915,PL-Tetris_2,001,0,
89,0,89,0,0,89,m,x,yes,no,False,t,90,j,0,0.0619448809884,2018_01_25_1230,50.3590140915,PL-Tetris_2,001,0,
90,0,90,0,0,90,m,m,yes,yes,True,s,90,s,0,0.280927869258,2018_01_25_1230,50.3590140915,PL-Tetris_2,001,0,
91,0,91,0,0,91,m,m,yes,yes,True,l,180,l,180,0.221631024266,2018_01_25_1230,50.3590140915,PL-Tetris_2,001,0,
92,0,92,0,0,92,m,x,yes,no,False,t,90,j,90,0.523891434306,2018_01_25_1230,50.3590140915,PL-Tetris_2,001,0,
93,0,93,0,0,93,m,m,yes,yes,True,i,90,i,90,0.100958363852,2018_01_25_1230,50.3590140915,PL-Tetris_2,001,0,
94,0,94,0,0,94,m,x,yes,no,False,s,90,i,0,0.201920909574,2018_01_25_1230,50.3590140915,PL-Tetris_2,001,0,
95,0,95,0,0,95,m,x,yes,no,False,j,270,l,90,1.8975070219,2018_01_25_1230,50.3590140915,PL-Tetris_2,001,0,
96,0,96,0,0,96,m,m,yes,yes,True,t,180,t,90,0.760151279392,2018_01_25_1230,50.3590140915,PL-Tetris_2,001,0,
97,0,97,0,0,97,m,x,yes,no,False,j,270,l,0,0.602012674557,2018_01_25_1230,50.3590140915,PL-Tetris_2,001,0,
98,0,98,0,0,98,m,x,yes,no,False,t,270,i,0,1.40192592726,2018_01_25_1230,50.3590140915,PL-Tetris_2,001,0,
99,0,99,0,0,99,m,m,yes,yes,True,j,0,j,180,0.14193943725,2018_01_25_1230,50.3590140915,PL-Tetris_2,001,0,
100,0,100,0,0,100,m,x,yes,no,False,s,90,j,180,0.400872186758,2018_01_25_1230,50.3590140915,PL-Tetris_2,001,0,
101,0,101,0,0,101,m,m,yes,yes,True,t,270,t,0,0.300975546241,2018_01_25_1230,50.3590140915,PL-Tetris_2,001,0,
102,0,102,0,0,102,m,x,yes,no,False,l,0,j,270,1.8007849073,2018_01_25_1230,50.3590140915,PL-Tetris_2,001,0,
103,0,103,0,0,103,m,m,yes,yes,True,l,90,l,0,0.141193608055,2018_01_25_1230,50.3590140915,PL-Tetris_2,001,0,
104,0,104,0,0,104,m,m,yes,yes,True,t,0,t,90,8.45865380485,2018_01_25_1230,50.3590140915,PL-Tetris_2,001,0,
105,0,105,0,0,105,m,m,yes,yes,True,i,90,i,0,0.200832196511,2018_01_25_1230,50.3590140915,PL-Tetris_2,001,0,
106,0,106,0,0,106,m,m,yes,yes,True,j,0,j,90,0.122496178607,2018_01_25_1230,50.3590140915,PL-Tetris_2,001,0,
107,0,107,0,0,107,m,m,yes,yes,True,l,0,l,90,0.381144965766,2018_01_25_1230,50.3590140915,PL-Tetris_2,001,0,
108,0,108,0,0,108,m,m,yes,yes,True,l,180,l,0,0.222285240656,2018_01_25_1230,50.3590140915,PL-Tetris_2,001,0,
109,0,109,0,0,109,m,m,yes,yes,True,l,90,l,180,0.499696840532,2018_01_25_1230,50.3590140915,PL-Tetris_2,001,0,
110,0,110,0,0,110,m,x,yes,no,False,t,90,l,270,1.16064941115,2018_01_25_1230,50.3590140915,PL-Tetris_2,001,0,
111,0,111,0,0,111,m,x,yes,no,False,l,270,z,90,0.139191805385,2018_01_25_1230,50.3590140915,PL-Tetris_2,001,0,
112,0,112,0,0,112,m,x,yes,no,False,s,0,t,90,0.0809361564461,2018_01_25_1230,50.3590140915,PL-Tetris_2,001,0,
113,0,113,0,0,113,m,x,yes,no,False,l,180,z,90,1.39877534984,2018_01_25_1230,50.3590140915,PL-Tetris_2,001,0,
114,0,114,0,0,114,m,m,yes,yes,True,l,270,l,180,0.863049103646,2018_01_25_1230,50.3590140915,PL-Tetris_2,001,0,
115,0,115,0,0,115,m,m,yes,yes,True,t,90,t,180,0.022710158024,2018_01_25_1230,50.3590140915,PL-Tetris_2,001,0,
116,0,116,0,0,116,m,x,yes,no,False,l,90,t,0,0.0417751800269,2018_01_25_1230,50.3590140915,PL-Tetris_2,001,0,
