trials.thisRepN,trials.thisTrialN,trials.thisN,trials.thisIndex,Block_Number,Trial_Number,Subject_Key,Correct_Key,Subject_Response,Correct_Response,Answered_Correctly,Left_Zoid,Left_Zoid_Orientation,Right_Zoid,Right_Zoid_Orientation,Response.rt,date,frameRate,expName,session,participant,
0,0,0,0,0,0,x,x,yes,yes,True,s,0,s,0,0.800346446573,2016_Mar_30_1616,49.9827972158,PL-Tetris_2,001,1,
1,0,1,0,0,1,m,m,no,no,True,s,0,z,90,1.78056358767,2016_Mar_30_1616,49.9827972158,PL-Tetris_2,001,1,
2,0,2,0,0,2,x,x,yes,yes,True,l,270,l,270,0.760373511235,2016_Mar_30_1616,49.9827972158,PL-Tetris_2,001,1,
3,0,3,0,0,3,m,m,no,no,True,t,270,s,90,0.800323721487,2016_Mar_30_1616,49.9827972158,PL-Tetris_2,001,1,
4,0,4,0,0,4,m,m,no,no,True,s,0,t,270,1.6600968159,2016_Mar_30_1616,49.9827972158,PL-Tetris_2,001,1,
5,0,5,0,0,5,m,m,no,no,True,o,0,t,270,0.780265963404,2016_Mar_30_1616,49.9827972158,PL-Tetris_2,001,1,
6,0,6,0,0,6,m,m,no,no,True,l,270,i,0,1.06026747345,2016_Mar_30_1616,49.9827972158,PL-Tetris_2,001,1,
7,0,7,0,0,7,m,m,no,no,True,l,90,t,180,0.901952921762,2016_Mar_30_1616,49.9827972158,PL-Tetris_2,001,1,
8,0,8,0,0,8,x,x,yes,yes,True,t,270,t,0,0.960304896347,2016_Mar_30_1616,49.9827972158,PL-Tetris_2,001,1,
9,0,9,0,0,9,m,m,no,no,True,i,0,z,0,0.860213666456,2016_Mar_30_1616,49.9827972158,PL-Tetris_2,001,1,
10,0,10,0,0,10,m,m,no,no,True,j,0,i,0,0.840550663765,2016_Mar_30_1616,49.9827972158,PL-Tetris_2,001,1,
11,0,11,0,0,11,m,m,no,no,True,l,270,s,0,0.680545664276,2016_Mar_30_1616,49.9827972158,PL-Tetris_2,001,1,
12,0,12,0,0,12,m,m,no,no,True,o,0,l,0,0.640389096225,2016_Mar_30_1616,49.9827972158,PL-Tetris_2,001,1,
13,0,13,0,0,13,x,x,yes,yes,True,s,90,s,0,1.04025773099,2016_Mar_30_1616,49.9827972158,PL-Tetris_2,001,1,
14,0,14,0,0,14,x,x,yes,yes,True,l,90,l,270,0.98041396914,2016_Mar_30_1616,49.9827972158,PL-Tetris_2,001,1,
15,0,15,0,0,15,x,x,yes,yes,True,t,270,t,90,0.620170796872,2016_Mar_30_1616,49.9827972158,PL-Tetris_2,001,1,
16,0,16,0,0,16,m,m,no,no,True,l,90,t,90,1.86023455882,2016_Mar_30_1616,49.9827972158,PL-Tetris_2,001,1,
17,0,17,0,0,17,x,x,yes,yes,True,l,90,l,180,0.860612453776,2016_Mar_30_1616,49.9827972158,PL-Tetris_2,001,1,
18,0,18,0,0,18,x,x,yes,yes,True,l,180,l,0,0.920204041293,2016_Mar_30_1616,49.9827972158,PL-Tetris_2,001,1,
19,0,19,0,0,19,m,m,no,no,True,s,0,i,0,2.19194134302,2016_Mar_30_1616,49.9827972158,PL-Tetris_2,001,1,
20,0,20,0,0,20,m,m,no,no,True,s,90,j,270,1.4609707027,2016_Mar_30_1616,49.9827972158,PL-Tetris_2,001,1,
21,0,21,0,0,21,x,x,yes,yes,True,l,180,l,90,1.67978071095,2016_Mar_30_1616,49.9827972158,PL-Tetris_2,001,1,
22,0,22,0,0,22,x,x,yes,yes,True,j,90,j,180,0.681189661962,2016_Mar_30_1616,49.9827972158,PL-Tetris_2,001,1,
23,0,23,0,0,23,x,x,yes,yes,True,l,0,l,0,0.54077509162,2016_Mar_30_1616,49.9827972158,PL-Tetris_2,001,1,
24,0,24,0,0,24,m,m,no,no,True,t,0,l,0,0.640316522797,2016_Mar_30_1616,49.9827972158,PL-Tetris_2,001,1,
25,0,25,0,0,25,x,x,yes,yes,True,j,270,j,90,0.760479072691,2016_Mar_30_1616,49.9827972158,PL-Tetris_2,001,1,
26,0,26,0,0,26,x,x,yes,yes,True,l,180,l,270,0.578969611088,2016_Mar_30_1616,49.9827972158,PL-Tetris_2,001,1,
27,0,27,0,0,27,x,x,yes,yes,True,j,180,j,270,0.580107328133,2016_Mar_30_1616,49.9827972158,PL-Tetris_2,001,1,
28,0,28,0,0,28,m,m,no,no,True,j,0,s,90,0.760243025725,2016_Mar_30_1616,49.9827972158,PL-Tetris_2,001,1,
29,0,29,0,0,29,m,m,no,no,True,s,90,t,0,0.740159243695,2016_Mar_30_1616,49.9827972158,PL-Tetris_2,001,1,
30,0,30,0,0,30,m,m,no,no,True,z,90,l,180,0.680371194845,2016_Mar_30_1616,49.9827972158,PL-Tetris_2,001,1,
31,0,31,0,0,31,x,x,yes,yes,True,l,90,l,90,0.760320364148,2016_Mar_30_1616,49.9827972158,PL-Tetris_2,001,1,
32,0,32,0,0,32,m,m,no,no,True,l,90,j,0,1.54102066834,2016_Mar_30_1616,49.9827972158,PL-Tetris_2,001,1,
33,0,33,0,0,33,x,x,yes,yes,True,j,180,j,0,1.59892877203,2016_Mar_30_1616,49.9827972158,PL-Tetris_2,001,1,
34,0,34,0,0,34,m,m,no,no,True,t,270,j,90,1.0403174758,2016_Mar_30_1616,49.9827972158,PL-Tetris_2,001,1,
35,0,35,0,0,35,x,x,yes,yes,True,z,0,z,0,0.699742437573,2016_Mar_30_1616,49.9827972158,PL-Tetris_2,001,1,
36,0,36,0,0,36,m,m,no,no,True,j,180,z,0,1.04039151536,2016_Mar_30_1616,49.9827972158,PL-Tetris_2,001,1,
37,0,37,0,0,37,x,x,yes,yes,True,t,270,t,270,0.760296905995,2016_Mar_30_1616,49.9827972158,PL-Tetris_2,001,1,
38,0,38,0,0,38,x,x,yes,yes,True,l,270,l,90,1.03738301655,2016_Mar_30_1616,49.9827972158,PL-Tetris_2,001,1,
39,0,39,0,0,39,m,m,no,no,True,t,0,z,90,0.720236369525,2016_Mar_30_1616,49.9827972158,PL-Tetris_2,001,1,
40,0,40,0,0,40,m,m,no,no,True,s,0,o,0,0.740778683685,2016_Mar_30_1616,49.9827972158,PL-Tetris_2,001,1,
41,0,41,0,0,41,m,m,no,no,True,z,0,l,270,1.27878132334,2016_Mar_30_1616,49.9827972158,PL-Tetris_2,001,1,
42,0,42,0,0,42,m,x,no,yes,False,z,0,z,90,1.00010556146,2016_Mar_30_1616,49.9827972158,PL-Tetris_2,001,1,
43,0,43,0,0,43,x,x,yes,yes,True,j,0,j,90,0.821398240863,2016_Mar_30_1616,49.9827972158,PL-Tetris_2,001,1,
44,0,44,0,0,44,m,m,no,no,True,t,90,l,270,1.18031493213,2016_Mar_30_1616,49.9827972158,PL-Tetris_2,001,1,
45,0,45,0,0,45,x,x,yes,yes,True,z,90,z,90,0.58005674649,2016_Mar_30_1616,49.9827972158,PL-Tetris_2,001,1,
46,0,46,0,0,46,x,x,yes,yes,True,l,0,l,180,1.76037351135,2016_Mar_30_1616,49.9827972158,PL-Tetris_2,001,1,
47,0,47,0,0,47,m,m,no,no,True,l,90,o,0,1.0401888229,2016_Mar_30_1616,49.9827972158,PL-Tetris_2,001,1,
48,0,48,0,0,48,x,x,yes,yes,True,t,180,t,90,0.860775194247,2016_Mar_30_1616,49.9827972158,PL-Tetris_2,001,1,
49,0,49,0,0,49,x,x,yes,yes,True,t,180,t,0,0.780236640712,2016_Mar_30_1616,49.9827972158,PL-Tetris_2,001,1,
50,0,50,0,0,50,m,m,no,no,True,s,90,l,0,0.660491571296,2016_Mar_30_1616,49.9827972158,PL-Tetris_2,001,1,
51,0,51,0,0,51,x,x,yes,yes,True,j,90,j,90,0.720416336902,2016_Mar_30_1616,49.9827972158,PL-Tetris_2,001,1,
52,0,52,0,0,52,m,m,no,no,True,z,0,s,0,0.940111521166,2016_Mar_30_1616,49.9827972158,PL-Tetris_2,001,1,
53,0,53,0,0,53,x,x,yes,yes,True,j,0,j,180,1.08037764567,2016_Mar_30_1616,49.9827972158,PL-Tetris_2,001,1,
54,0,54,0,0,54,m,m,no,no,True,z,90,t,0,0.800327386823,2016_Mar_30_1616,49.9827972158,PL-Tetris_2,001,1,
55,0,55,0,0,55,m,m,no,no,True,j,270,l,0,1.16059768258,2016_Mar_30_1616,49.9827972158,PL-Tetris_2,001,1,
56,0,56,0,0,56,m,m,no,no,True,t,180,i,90,0.800480230828,2016_Mar_30_1616,49.9827972158,PL-Tetris_2,001,1,
57,0,57,0,0,57,m,m,no,no,True,i,90,j,0,1.12042755284,2016_Mar_30_1616,49.9827972158,PL-Tetris_2,001,1,
58,0,58,0,0,58,x,x,yes,yes,True,j,0,j,0,0.699210232357,2016_Mar_30_1616,49.9827972158,PL-Tetris_2,001,1,
59,0,59,0,0,59,m,m,no,no,True,j,180,t,0,0.879268225166,2016_Mar_30_1616,49.9827972158,PL-Tetris_2,001,1,
60,0,60,0,0,60,x,x,yes,yes,True,j,0,j,270,1.60186139867,2016_Mar_30_1616,49.9827972158,PL-Tetris_2,001,1,
61,0,61,0,0,61,m,m,no,no,True,l,90,z,90,0.859805715736,2016_Mar_30_1616,49.9827972158,PL-Tetris_2,001,1,
62,0,62,0,0,62,x,x,yes,yes,True,t,270,t,180,1.08036591671,2016_Mar_30_1616,49.9827972158,PL-Tetris_2,001,1,
63,0,63,0,0,63,x,x,yes,yes,True,t,90,t,0,0.820480443537,2016_Mar_30_1616,49.9827972158,PL-Tetris_2,001,1,
64,0,64,0,0,64,x,x,yes,yes,True,i,0,i,0,0.840209421935,2016_Mar_30_1616,49.9827972158,PL-Tetris_2,001,1,
65,0,65,0,0,65,x,x,yes,yes,True,t,180,t,270,0.76052159036,2016_Mar_30_1616,49.9827972158,PL-Tetris_2,001,1,
66,0,66,0,0,66,x,x,yes,yes,True,z,90,z,0,1.7589275405,2016_Mar_30_1616,49.9827972158,PL-Tetris_2,001,1,
67,0,67,0,0,67,m,m,no,no,True,j,0,l,270,1.44037010986,2016_Mar_30_1616,49.9827972158,PL-Tetris_2,001,1,
68,0,68,0,0,68,x,x,yes,yes,True,j,180,j,90,1.31983296375,2016_Mar_30_1616,49.9827972158,PL-Tetris_2,001,1,
69,0,69,0,0,69,x,x,yes,yes,True,t,0,t,0,1.02033229102,2016_Mar_30_1616,49.9827972158,PL-Tetris_2,001,1,
70,0,70,0,0,70,x,x,yes,yes,True,s,90,s,90,0.880412173225,2016_Mar_30_1616,49.9827972158,PL-Tetris_2,001,1,
71,0,71,0,0,71,m,x,no,yes,False,j,270,j,180,1.2204267832,2016_Mar_30_1616,49.9827972158,PL-Tetris_2,001,1,
72,0,72,0,0,72,m,m,no,no,True,t,270,s,0,1.54025058367,2016_Mar_30_1616,49.9827972158,PL-Tetris_2,001,1,
73,0,73,0,0,73,x,x,yes,yes,True,j,270,j,0,0.660600798088,2016_Mar_30_1616,49.9827972158,PL-Tetris_2,001,1,
74,0,74,0,0,74,m,m,no,no,True,z,90,i,0,0.660377946333,2016_Mar_30_1616,49.9827972158,PL-Tetris_2,001,1,
75,0,75,0,0,75,m,m,no,no,True,i,0,t,90,0.680326477857,2016_Mar_30_1616,49.9827972158,PL-Tetris_2,001,1,
76,0,76,0,0,76,m,m,no,no,True,z,90,j,270,0.800379800959,2016_Mar_30_1616,49.9827972158,PL-Tetris_2,001,1,
77,0,77,0,0,77,x,x,yes,yes,True,t,0,t,270,0.660320034134,2016_Mar_30_1616,49.9827972158,PL-Tetris_2,001,1,
78,0,78,0,0,78,m,m,no,no,True,j,90,l,180,1.3005199997,2016_Mar_30_1616,49.9827972158,PL-Tetris_2,001,1,
79,0,79,0,0,79,x,x,yes,yes,True,l,180,l,180,0.680307418224,2016_Mar_30_1616,49.9827972158,PL-Tetris_2,001,1,
80,0,80,0,0,80,x,x,yes,yes,True,t,90,t,270,1.12035241374,2016_Mar_30_1616,49.9827972158,PL-Tetris_2,001,1,
81,0,81,0,0,81,x,x,yes,yes,True,t,90,t,180,0.680133315152,2016_Mar_30_1616,49.9827972158,PL-Tetris_2,001,1,
82,0,82,0,0,82,m,m,no,no,True,j,270,i,0,0.620053139864,2016_Mar_30_1616,49.9827972158,PL-Tetris_2,001,1,
83,0,83,0,0,83,x,x,yes,yes,True,t,0,t,90,1.13982775167,2016_Mar_30_1616,49.9827972158,PL-Tetris_2,001,1,
84,0,84,0,0,84,m,m,no,no,True,t,180,z,0,0.660282281344,2016_Mar_30_1616,49.9827972158,PL-Tetris_2,001,1,
85,0,85,0,0,85,m,m,no,no,True,o,0,t,0,1.20009192626,2016_Mar_30_1616,49.9827972158,PL-Tetris_2,001,1,
86,0,86,0,0,86,m,m,no,no,True,t,270,z,90,1.62012864556,2016_Mar_30_1616,49.9827972158,PL-Tetris_2,001,1,
87,0,87,0,0,87,m,m,no,no,True,s,0,l,0,3.1798050853,2016_Mar_30_1616,49.9827972158,PL-Tetris_2,001,1,
88,0,88,0,0,88,m,m,no,no,True,t,180,z,90,1.46021381312,2016_Mar_30_1616,49.9827972158,PL-Tetris_2,001,1,
89,0,89,0,0,89,m,m,no,no,True,s,90,l,270,1.10047388985,2016_Mar_30_1616,49.9827972158,PL-Tetris_2,001,1,
90,0,90,0,0,90,x,x,yes,yes,True,l,270,l,0,0.779435400735,2016_Mar_30_1616,49.9827972158,PL-Tetris_2,001,1,
91,0,91,0,0,91,m,m,no,no,True,l,90,i,0,0.560385680175,2016_Mar_30_1616,49.9827972158,PL-Tetris_2,001,1,
92,0,92,0,0,92,x,x,yes,yes,True,j,270,j,270,0.840283828089,2016_Mar_30_1616,49.9827972158,PL-Tetris_2,001,1,
93,0,93,0,0,93,x,x,yes,yes,True,t,180,t,180,0.700224794331,2016_Mar_30_1616,49.9827972158,PL-Tetris_2,001,1,
94,0,94,0,0,94,x,x,yes,yes,True,o,0,o,0,0.680680181715,2016_Mar_30_1616,49.9827972158,PL-Tetris_2,001,1,
95,0,95,0,0,95,m,m,no,no,True,s,90,t,270,0.790213655448,2016_Mar_30_1616,49.9827972158,PL-Tetris_2,001,1,
96,0,96,0,0,96,x,x,yes,yes,True,s,0,s,90,0.85996662348,2016_Mar_30_1616,49.9827972158,PL-Tetris_2,001,1,
97,0,97,0,0,97,m,m,no,no,True,i,90,o,0,0.641660964,2016_Mar_30_1616,49.9827972158,PL-Tetris_2,001,1,
98,0,98,0,0,98,x,x,yes,yes,True,j,90,j,0,1.40037298354,2016_Mar_30_1616,49.9827972158,PL-Tetris_2,001,1,
99,0,99,0,0,99,x,x,yes,yes,True,i,90,i,90,0.640406689723,2016_Mar_30_1616,49.9827972158,PL-Tetris_2,001,1,
100,0,100,0,0,100,x,x,yes,yes,True,l,0,l,90,1.41997514176,2016_Mar_30_1616,49.9827972158,PL-Tetris_2,001,1,
101,0,101,0,0,101,x,x,yes,yes,True,t,90,t,90,0.600313165342,2016_Mar_30_1616,49.9827972158,PL-Tetris_2,001,1,
102,0,102,0,0,102,m,m,no,no,True,l,180,i,0,0.801015368314,2016_Mar_30_1616,49.9827972158,PL-Tetris_2,001,1,
103,0,103,0,0,103,x,x,yes,yes,True,i,0,i,90,0.740359003888,2016_Mar_30_1616,49.9827972158,PL-Tetris_2,001,1,
104,0,104,0,0,104,x,x,yes,yes,True,l,270,l,180,0.620696770959,2016_Mar_30_1616,49.9827972158,PL-Tetris_2,001,1,
105,0,105,0,0,105,x,x,yes,yes,True,t,0,t,180,0.540234822663,2016_Mar_30_1616,49.9827972158,PL-Tetris_2,001,1,
106,0,106,0,0,106,m,m,no,no,True,l,180,t,90,0.618951709708,2016_Mar_30_1616,49.9827972158,PL-Tetris_2,001,1,
107,0,107,0,0,107,m,x,no,yes,False,i,90,i,0,0.520269430708,2016_Mar_30_1616,49.9827972158,PL-Tetris_2,001,1,
108,0,108,0,0,108,m,m,no,no,True,z,90,l,90,0.680150908651,2016_Mar_30_1616,49.9827972158,PL-Tetris_2,001,1,
109,0,109,0,0,109,m,m,no,no,True,o,0,t,180,0.620476851473,2016_Mar_30_1616,49.9827972158,PL-Tetris_2,001,1,
110,0,110,0,0,110,x,m,yes,no,False,j,180,i,0,0.620250700857,2016_Mar_30_1616,49.9827972158,PL-Tetris_2,001,1,
111,0,111,0,0,111,x,x,yes,yes,True,j,180,j,180,0.680081634084,2016_Mar_30_1616,49.9827972158,PL-Tetris_2,001,1,
112,0,112,0,0,112,m,m,no,no,True,s,90,j,0,0.901591887348,2016_Mar_30_1616,49.9827972158,PL-Tetris_2,001,1,
113,0,113,0,0,113,m,m,no,no,True,o,0,l,270,0.6413061606,2016_Mar_30_1616,49.9827972158,PL-Tetris_2,001,1,
114,0,114,0,0,114,x,x,yes,yes,True,l,90,l,0,0.820285814814,2016_Mar_30_1616,49.9827972158,PL-Tetris_2,001,1,
115,0,115,0,0,115,m,m,no,no,True,t,270,j,180,2.00031778368,2016_Mar_30_1616,49.9827972158,PL-Tetris_2,001,1,
116,0,116,0,0,116,m,m,no,no,True,j,270,t,90,3.42153950245,2016_Mar_30_1616,49.9827972158,PL-Tetris_2,001,1,
117,0,117,0,0,117,m,m,no,no,True,z,0,t,270,2.64030772611,2016_Mar_30_1616,49.9827972158,PL-Tetris_2,001,1,
118,0,118,0,0,118,x,x,yes,yes,True,l,0,l,270,1.74080617365,2016_Mar_30_1616,49.9827972158,PL-Tetris_2,001,1,
119,0,119,0,0,119,x,x,yes,yes,True,j,90,j,270,1.04017819348,2016_Mar_30_1616,49.9827972158,PL-Tetris_2,001,1,
120,0,120,0,0,120,m,m,no,no,True,l,0,t,270,0.880350229214,2016_Mar_30_1616,49.9827972158,PL-Tetris_2,001,1,
0,0,0,0,1,0,m,m,no,no,True,z,90,l,270,1.22025707853,2016_Mar_30_1616,49.9827972158,PL-Tetris_2,001,1,
1,0,1,0,1,1,m,m,no,no,True,i,0,l,180,0.720252496889,2016_Mar_30_1616,49.9827972158,PL-Tetris_2,001,1,
2,0,2,0,1,2,x,x,yes,yes,True,o,0,o,0,0.620326939621,2016_Mar_30_1616,49.9827972158,PL-Tetris_2,001,1,
3,0,3,0,1,3,m,m,no,no,True,t,90,i,0,1.24087856384,2016_Mar_30_1616,49.9827972158,PL-Tetris_2,001,1,
4,0,4,0,1,4,x,x,yes,yes,True,j,90,j,90,8.10096724262,2016_Mar_30_1616,49.9827972158,PL-Tetris_2,001,1,
5,0,5,0,1,5,x,x,yes,yes,True,j,180,j,90,2.0011380834,2016_Mar_30_1616,49.9827972158,PL-Tetris_2,001,1,
6,0,6,0,1,6,x,x,yes,yes,True,i,90,i,0,1.4002538604,2016_Mar_30_1616,49.9827972158,PL-Tetris_2,001,1,
7,0,7,0,1,7,x,x,yes,yes,True,l,0,l,270,2.60144611739,2016_Mar_30_1616,49.9827972158,PL-Tetris_2,001,1,
8,0,8,0,1,8,x,x,yes,yes,True,z,90,z,90,1.16113355313,2016_Mar_30_1616,49.9827972158,PL-Tetris_2,001,1,
9,0,9,0,1,9,x,x,yes,yes,True,l,90,l,0,0.680314382189,2016_Mar_30_1616,49.9827972158,PL-Tetris_2,001,1,
10,0,10,0,1,10,x,x,yes,yes,True,t,270,t,0,0.80010050314,2016_Mar_30_1616,49.9827972158,PL-Tetris_2,001,1,
11,0,11,0,1,11,m,m,no,no,True,t,180,i,0,0.59973184485,2016_Mar_30_1616,49.9827972158,PL-Tetris_2,001,1,
12,0,12,0,1,12,m,m,no,no,True,t,270,l,90,1.02027144667,2016_Mar_30_1616,49.9827972158,PL-Tetris_2,001,1,
13,0,13,0,1,13,x,x,yes,yes,True,l,0,l,180,1.68034663715,2016_Mar_30_1616,49.9827972158,PL-Tetris_2,001,1,
14,0,14,0,1,14,m,m,no,no,True,t,0,j,0,0.727327307337,2016_Mar_30_1616,49.9827972158,PL-Tetris_2,001,1,
15,0,15,0,1,15,m,m,no,no,True,j,90,s,90,0.860251419363,2016_Mar_30_1616,49.9827972158,PL-Tetris_2,001,1,
16,0,16,0,1,16,x,x,yes,yes,True,t,90,t,180,0.680249872617,2016_Mar_30_1616,49.9827972158,PL-Tetris_2,001,1,
17,0,17,0,1,17,x,x,yes,yes,True,t,0,t,90,0.841397353914,2016_Mar_30_1616,49.9827972158,PL-Tetris_2,001,1,
18,0,18,0,1,18,m,m,no,no,True,j,270,s,0,0.960222060094,2016_Mar_30_1616,49.9827972158,PL-Tetris_2,001,1,
19,0,19,0,1,19,x,x,yes,yes,True,t,180,t,90,1.44044744829,2016_Mar_30_1616,49.9827972158,PL-Tetris_2,001,1,
20,0,20,0,1,20,x,x,yes,yes,True,j,180,j,270,1.1403002122,2016_Mar_30_1616,49.9827972158,PL-Tetris_2,001,1,
21,0,21,0,1,21,x,x,yes,yes,True,l,90,l,270,0.940150740091,2016_Mar_30_1616,49.9827972158,PL-Tetris_2,001,1,
22,0,22,0,1,22,x,x,yes,yes,True,t,270,t,90,0.580177702243,2016_Mar_30_1616,49.9827972158,PL-Tetris_2,001,1,
23,0,23,0,1,23,x,x,yes,yes,True,j,270,j,90,0.599798187264,2016_Mar_30_1616,49.9827972158,PL-Tetris_2,001,1,
24,0,24,0,1,24,x,x,yes,yes,True,j,0,j,90,0.920237762271,2016_Mar_30_1616,49.9827972158,PL-Tetris_2,001,1,
25,0,25,0,1,25,x,x,yes,yes,True,l,270,l,0,0.840810535359,2016_Mar_30_1616,49.9827972158,PL-Tetris_2,001,1,
26,0,26,0,1,26,m,m,no,no,True,l,90,z,0,0.878360690665,2016_Mar_30_1616,49.9827972158,PL-Tetris_2,001,1,
27,0,27,0,1,27,x,x,yes,yes,True,t,180,t,180,0.660265787388,2016_Mar_30_1616,49.9827972158,PL-Tetris_2,001,1,
28,0,28,0,1,28,x,x,yes,yes,True,j,90,j,180,1.55885687307,2016_Mar_30_1616,49.9827972158,PL-Tetris_2,001,1,
29,0,29,0,1,29,m,m,no,no,True,z,90,t,90,0.860109937727,2016_Mar_30_1616,49.9827972158,PL-Tetris_2,001,1,
30,0,30,0,1,30,m,m,no,no,True,t,0,j,90,0.61900449032,2016_Mar_30_1616,49.9827972158,PL-Tetris_2,001,1,
31,0,31,0,1,31,m,m,no,no,True,j,90,l,270,1.1201332272,2016_Mar_30_1616,49.9827972158,PL-Tetris_2,001,1,
32,0,32,0,1,32,x,x,yes,yes,True,j,90,j,0,0.940316779306,2016_Mar_30_1616,49.9827972158,PL-Tetris_2,001,1,
33,0,33,0,1,33,m,m,no,no,True,j,0,z,90,0.839935255703,2016_Mar_30_1616,49.9827972158,PL-Tetris_2,001,1,
34,0,34,0,1,34,x,x,yes,yes,True,l,90,l,90,1.24129274546,2016_Mar_30_1616,49.9827972158,PL-Tetris_2,001,1,
35,0,35,0,1,35,x,x,yes,yes,True,t,90,t,0,3.85989258403,2016_Mar_30_1616,49.9827972158,PL-Tetris_2,001,1,
36,0,36,0,1,36,m,m,no,no,True,t,90,s,0,1.26050967816,2016_Mar_30_1616,49.9827972158,PL-Tetris_2,001,1,
37,0,37,0,1,37,x,x,yes,yes,True,l,180,l,270,1.079918014,2016_Mar_30_1616,49.9827972158,PL-Tetris_2,001,1,
38,0,38,0,1,38,m,m,no,no,True,l,270,z,90,0.620361393667,2016_Mar_30_1616,49.9827972158,PL-Tetris_2,001,1,
39,0,39,0,1,39,x,x,yes,yes,True,t,0,t,180,0.820283249021,2016_Mar_30_1616,49.9827972158,PL-Tetris_2,001,1,
40,0,40,0,1,40,m,m,no,no,True,t,90,i,90,0.780312513001,2016_Mar_30_1616,49.9827972158,PL-Tetris_2,001,1,
41,0,41,0,1,41,x,m,yes,no,False,j,180,l,0,2.98067310767,2016_Mar_30_1616,49.9827972158,PL-Tetris_2,001,1,
42,0,42,0,1,42,m,m,no,no,True,o,0,i,90,2.91978802695,2016_Mar_30_1616,49.9827972158,PL-Tetris_2,001,1,
43,0,43,0,1,43,x,m,yes,no,False,j,270,l,90,1.04179350229,2016_Mar_30_1616,49.9827972158,PL-Tetris_2,001,1,
44,0,44,0,1,44,m,m,no,no,True,l,0,j,0,1.00038669189,2016_Mar_30_1616,49.9827972158,PL-Tetris_2,001,1,
45,0,45,0,1,45,m,m,no,no,True,l,90,j,270,0.820306340465,2016_Mar_30_1616,49.9827972158,PL-Tetris_2,001,1,
46,0,46,0,1,46,m,m,no,no,True,t,270,l,270,0.960263844812,2016_Mar_30_1616,49.9827972158,PL-Tetris_2,001,1,
47,0,47,0,1,47,x,x,yes,yes,True,z,90,z,0,1.58016524022,2016_Mar_30_1616,49.9827972158,PL-Tetris_2,001,1,
48,0,48,0,1,48,m,m,no,no,True,l,270,t,270,1.36144136707,2016_Mar_30_1616,49.9827972158,PL-Tetris_2,001,1,
49,0,49,0,1,49,x,x,yes,yes,True,j,270,j,270,0.660359253176,2016_Mar_30_1616,49.9827972158,PL-Tetris_2,001,1,
50,0,50,0,1,50,m,m,no,no,True,s,90,t,180,1.44028324157,2016_Mar_30_1616,49.9827972158,PL-Tetris_2,001,1,
51,0,51,0,1,51,m,m,no,no,True,l,270,t,90,0.600064289873,2016_Mar_30_1616,49.9827972158,PL-Tetris_2,001,1,
52,0,52,0,1,52,m,m,no,no,True,o,0,j,90,0.720270823454,2016_Mar_30_1616,49.9827972158,PL-Tetris_2,001,1,
53,0,53,0,1,53,m,m,no,no,True,z,0,s,90,1.10094011924,2016_Mar_30_1616,49.9827972158,PL-Tetris_2,001,1,
54,0,54,0,1,54,x,x,yes,yes,True,i,0,i,90,1.24015539512,2016_Mar_30_1616,49.9827972158,PL-Tetris_2,001,1,
55,0,55,0,1,55,m,m,no,no,True,i,90,z,90,0.900328449789,2016_Mar_30_1616,49.9827972158,PL-Tetris_2,001,1,
56,0,56,0,1,56,x,x,yes,yes,True,j,180,j,180,0.80036074121,2016_Mar_30_1616,49.9827972158,PL-Tetris_2,001,1,
57,0,57,0,1,57,x,x,yes,yes,True,s,0,s,90,0.859710417222,2016_Mar_30_1616,49.9827972158,PL-Tetris_2,001,1,
58,0,58,0,1,58,m,m,no,no,True,l,180,o,0,0.700350148603,2016_Mar_30_1616,49.9827972158,PL-Tetris_2,001,1,
59,0,59,0,1,59,m,m,no,no,True,l,180,j,180,0.740282765124,2016_Mar_30_1616,49.9827972158,PL-Tetris_2,001,1,
60,0,60,0,1,60,x,x,yes,yes,True,l,270,l,90,1.08017238753,2016_Mar_30_1616,49.9827972158,PL-Tetris_2,001,1,
61,0,61,0,1,61,m,m,no,no,True,i,90,z,0,0.861789389746,2016_Mar_30_1616,49.9827972158,PL-Tetris_2,001,1,
62,0,62,0,1,62,m,m,no,no,True,i,0,t,0,1.44035874738,2016_Mar_30_1616,49.9827972158,PL-Tetris_2,001,1,
63,0,63,0,1,63,m,m,no,no,True,l,270,j,90,1.02023479331,2016_Mar_30_1616,49.9827972158,PL-Tetris_2,001,1,
64,0,64,0,1,64,x,x,yes,yes,True,j,180,j,0,0.80073900288,2016_Mar_30_1616,49.9827972158,PL-Tetris_2,001,1,
65,0,65,0,1,65,x,x,yes,yes,True,l,180,l,180,1.02193037281,2016_Mar_30_1616,49.9827972158,PL-Tetris_2,001,1,
66,0,66,0,1,66,x,x,yes,yes,True,l,180,l,90,0.940396683523,2016_Mar_30_1616,49.9827972158,PL-Tetris_2,001,1,
67,0,67,0,1,67,x,x,yes,yes,True,l,90,l,180,0.740194064216,2016_Mar_30_1616,49.9827972158,PL-Tetris_2,001,1,
68,0,68,0,1,68,x,x,yes,yes,True,l,180,l,0,0.759166886215,2016_Mar_30_1616,49.9827972158,PL-Tetris_2,001,1,
69,0,69,0,1,69,m,m,no,no,True,z,90,i,90,1.8404788234,2016_Mar_30_1616,49.9827972158,PL-Tetris_2,001,1,
70,0,70,0,1,70,x,x,yes,yes,True,t,180,t,270,0.740412151092,2016_Mar_30_1616,49.9827972158,PL-Tetris_2,001,1,
71,0,71,0,1,71,m,m,no,no,True,z,0,t,0,0.720443460392,2016_Mar_30_1616,49.9827972158,PL-Tetris_2,001,1,
72,0,72,0,1,72,x,x,yes,yes,True,l,270,l,270,0.960124562378,2016_Mar_30_1616,49.9827972158,PL-Tetris_2,001,1,
73,0,73,0,1,73,m,m,no,no,True,j,270,o,0,0.680607241811,2016_Mar_30_1616,49.9827972158,PL-Tetris_2,001,1,
74,0,74,0,1,74,m,m,no,no,True,l,90,t,270,0.659983190824,2016_Mar_30_1616,49.9827972158,PL-Tetris_2,001,1,
75,0,75,0,1,75,x,x,yes,yes,True,j,0,j,0,1.07958263671,2016_Mar_30_1616,49.9827972158,PL-Tetris_2,001,1,
76,0,76,0,1,76,x,x,yes,yes,True,j,0,j,270,3.06036717026,2016_Mar_30_1616,49.9827972158,PL-Tetris_2,001,1,
77,0,77,0,1,77,m,m,no,no,True,j,0,l,0,2.46050520649,2016_Mar_30_1616,49.9827972158,PL-Tetris_2,001,1,
78,0,78,0,1,78,x,x,yes,yes,True,i,90,i,90,0.978841178119,2016_Mar_30_1616,49.9827972158,PL-Tetris_2,001,1,
79,0,79,0,1,79,m,m,no,no,True,i,0,s,90,0.681448433897,2016_Mar_30_1616,49.9827972158,PL-Tetris_2,001,1,
80,0,80,0,1,80,m,m,no,no,True,j,180,t,90,0.800326287164,2016_Mar_30_1616,49.9827972158,PL-Tetris_2,001,1,
81,0,81,0,1,81,m,m,no,no,True,l,90,j,90,1.40135565703,2016_Mar_30_1616,49.9827972158,PL-Tetris_2,001,1,
82,0,82,0,1,82,m,m,no,no,True,l,0,t,90,1.00024337764,2016_Mar_30_1616,49.9827972158,PL-Tetris_2,001,1,
83,0,83,0,1,83,x,x,yes,yes,True,z,0,z,90,1.02040156571,2016_Mar_30_1616,49.9827972158,PL-Tetris_2,001,1,
84,0,84,0,1,84,x,x,yes,yes,True,l,0,l,0,0.940237608389,2016_Mar_30_1616,49.9827972158,PL-Tetris_2,001,1,
85,0,85,0,1,85,m,m,no,no,True,l,180,j,0,1.31983039808,2016_Mar_30_1616,49.9827972158,PL-Tetris_2,001,1,
86,0,86,0,1,86,m,m,no,no,True,l,180,t,270,0.72009818675,2016_Mar_30_1616,49.9827972158,PL-Tetris_2,001,1,
87,0,87,0,1,87,m,m,no,no,True,z,90,t,270,1.02167563268,2016_Mar_30_1616,49.9827972158,PL-Tetris_2,001,1,
88,0,88,0,1,88,m,m,no,no,True,j,0,t,90,1.60018707812,2016_Mar_30_1616,49.9827972158,PL-Tetris_2,001,1,
89,0,89,0,1,89,x,x,yes,yes,True,t,0,t,270,1.52077451244,2016_Mar_30_1616,49.9827972158,PL-Tetris_2,001,1,
90,0,90,0,1,90,m,m,no,no,True,j,90,t,270,3.58038259391,2016_Mar_30_1616,49.9827972158,PL-Tetris_2,001,1,
91,0,91,0,1,91,x,x,yes,yes,True,t,180,t,0,7.56083028414,2016_Mar_30_1616,49.9827972158,PL-Tetris_2,001,1,
92,0,92,0,1,92,m,m,no,no,True,z,0,j,90,1.36033993692,2016_Mar_30_1616,49.9827972158,PL-Tetris_2,001,1,
93,0,93,0,1,93,m,m,no,no,True,o,0,t,90,0.780278425431,2016_Mar_30_1616,49.9827972158,PL-Tetris_2,001,1,
94,0,94,0,1,94,x,x,yes,yes,True,j,270,j,180,1.2808438018,2016_Mar_30_1616,49.9827972158,PL-Tetris_2,001,1,
95,0,95,0,1,95,x,x,yes,yes,True,t,90,t,270,0.781718898099,2016_Mar_30_1616,49.9827972158,PL-Tetris_2,001,1,
96,0,96,0,1,96,m,m,no,no,True,l,270,t,0,0.740225219517,2016_Mar_30_1616,49.9827972158,PL-Tetris_2,001,1,
97,0,97,0,1,97,m,m,no,no,True,j,180,s,0,0.880435997737,2016_Mar_30_1616,49.9827972158,PL-Tetris_2,001,1,
98,0,98,0,1,98,m,m,no,no,True,j,0,t,270,1.26031358319,2016_Mar_30_1616,49.9827972158,PL-Tetris_2,001,1,
99,0,99,0,1,99,m,m,no,no,True,j,180,t,270,0.680274430197,2016_Mar_30_1616,49.9827972158,PL-Tetris_2,001,1,
100,0,100,0,1,100,m,m,no,no,True,s,0,t,180,0.820622658124,2016_Mar_30_1616,49.9827972158,PL-Tetris_2,001,1,
101,0,101,0,1,101,m,m,no,no,True,s,0,i,90,0.640499056084,2016_Mar_30_1616,49.9827972158,PL-Tetris_2,001,1,
102,0,102,0,1,102,m,m,no,no,True,t,270,o,0,0.661223170231,2016_Mar_30_1616,49.9827972158,PL-Tetris_2,001,1,
103,0,103,0,1,103,x,x,yes,yes,True,l,0,l,90,1.04063342686,2016_Mar_30_1616,49.9827972158,PL-Tetris_2,001,1,
104,0,104,0,1,104,x,x,yes,yes,True,j,0,j,180,0.820486674551,2016_Mar_30_1616,49.9827972158,PL-Tetris_2,001,1,
105,0,105,0,1,105,x,x,yes,yes,True,i,0,i,0,0.677199589089,2016_Mar_30_1616,49.9827972158,PL-Tetris_2,001,1,
106,0,106,0,1,106,x,x,yes,yes,True,j,90,j,270,0.620240437915,2016_Mar_30_1616,49.9827972158,PL-Tetris_2,001,1,
107,0,107,0,1,107,m,m,no,no,True,i,90,t,180,0.819982325891,2016_Mar_30_1616,49.9827972158,PL-Tetris_2,001,1,
108,0,108,0,1,108,x,x,yes,yes,True,t,270,t,270,0.68033564114,2016_Mar_30_1616,49.9827972158,PL-Tetris_2,001,1,
109,0,109,0,1,109,m,m,no,no,True,j,90,t,90,0.700922305696,2016_Mar_30_1616,49.9827972158,PL-Tetris_2,001,1,
110,0,110,0,1,110,x,x,yes,yes,True,z,0,z,0,0.660301707569,2016_Mar_30_1616,49.9827972158,PL-Tetris_2,001,1,
111,0,111,0,1,111,m,m,no,no,True,s,90,i,0,0.740395290661,2016_Mar_30_1616,49.9827972158,PL-Tetris_2,001,1,
112,0,112,0,1,112,x,x,yes,yes,True,s,90,s,90,0.779875239707,2016_Mar_30_1616,49.9827972158,PL-Tetris_2,001,1,
113,0,113,0,1,113,x,x,yes,yes,True,t,0,t,0,0.661583105219,2016_Mar_30_1616,49.9827972158,PL-Tetris_2,001,1,
114,0,114,0,1,114,x,x,yes,yes,True,t,90,t,90,0.561333899735,2016_Mar_30_1616,49.9827972158,PL-Tetris_2,001,1,
115,0,115,0,1,115,x,x,yes,yes,True,s,0,s,0,0.620402445318,2016_Mar_30_1616,49.9827972158,PL-Tetris_2,001,1,
116,0,116,0,1,116,x,x,yes,yes,True,l,270,l,180,0.860248120502,2016_Mar_30_1616,49.9827972158,PL-Tetris_2,001,1,
117,0,117,0,1,117,m,m,no,no,True,j,180,l,90,1.00008980045,2016_Mar_30_1616,49.9827972158,PL-Tetris_2,001,1,
118,0,118,0,1,118,x,x,yes,yes,True,j,270,j,0,1.74033334665,2016_Mar_30_1616,49.9827972158,PL-Tetris_2,001,1,
119,0,119,0,1,119,x,x,yes,yes,True,t,270,t,180,0.620335003361,2016_Mar_30_1616,49.9827972158,PL-Tetris_2,001,1,
120,0,120,0,1,120,x,x,yes,yes,True,s,90,s,0,0.720244799741,2016_Mar_30_1616,49.9827972158,PL-Tetris_2,001,1,
0,0,0,0,2,0,x,x,yes,yes,True,l,0,l,180,1.26036526437,2016_Mar_30_1616,49.9827972158,PL-Tetris_2,001,1,
1,0,1,0,2,1,m,m,no,no,True,i,90,t,0,1.60038903763,2016_Mar_30_1616,49.9827972158,PL-Tetris_2,001,1,
2,0,2,0,2,2,x,x,yes,yes,True,j,0,j,180,0.699809146579,2016_Mar_30_1616,49.9827972158,PL-Tetris_2,001,1,
3,0,3,0,2,3,x,x,yes,yes,True,t,180,t,180,1.70162164967,2016_Mar_30_1616,49.9827972158,PL-Tetris_2,001,1,
4,0,4,0,2,4,x,x,yes,yes,True,l,180,l,0,0.719798729639,2016_Mar_30_1616,49.9827972158,PL-Tetris_2,001,1,
5,0,5,0,2,5,m,m,no,no,True,l,0,o,0,0.640617445926,2016_Mar_30_1616,49.9827972158,PL-Tetris_2,001,1,
6,0,6,0,2,6,m,m,no,no,True,l,270,s,90,1.35972196318,2016_Mar_30_1616,49.9827972158,PL-Tetris_2,001,1,
7,0,7,0,2,7,x,x,yes,yes,True,s,0,s,0,0.720489276922,2016_Mar_30_1616,49.9827972158,PL-Tetris_2,001,1,
8,0,8,0,2,8,x,x,yes,yes,True,j,90,j,0,1.50035205449,2016_Mar_30_1616,49.9827972158,PL-Tetris_2,001,1,
9,0,9,0,2,9,m,m,no,no,True,z,90,l,0,0.72134732944,2016_Mar_30_1616,49.9827972158,PL-Tetris_2,001,1,
10,0,10,0,2,10,m,m,no,no,True,s,90,l,90,0.720300146029,2016_Mar_30_1616,49.9827972158,PL-Tetris_2,001,1,
11,0,11,0,2,11,m,m,no,no,True,z,0,t,180,1.1002286796,2016_Mar_30_1616,49.9827972158,PL-Tetris_2,001,1,
12,0,12,0,2,12,m,m,no,no,True,z,90,j,90,1.07989308971,2016_Mar_30_1616,49.9827972158,PL-Tetris_2,001,1,
13,0,13,0,2,13,x,x,yes,yes,True,z,0,z,90,1.40045618627,2016_Mar_30_1616,49.9827972158,PL-Tetris_2,001,1,
14,0,14,0,2,14,x,x,yes,yes,True,z,0,z,0,0.800119929365,2016_Mar_30_1616,49.9827972158,PL-Tetris_2,001,1,
15,0,15,0,2,15,x,x,yes,yes,True,i,90,i,90,1.00053220522,2016_Mar_30_1616,49.9827972158,PL-Tetris_2,001,1,
16,0,16,0,2,16,x,x,yes,yes,True,j,0,j,270,4.5188362886,2016_Mar_30_1616,49.9827972158,PL-Tetris_2,001,1,
17,0,17,0,2,17,m,m,no,no,True,l,0,s,90,7.70021416491,2016_Mar_30_1616,49.9827972158,PL-Tetris_2,001,1,
18,0,18,0,2,18,m,m,no,no,True,t,0,s,90,9.78075601731,2016_Mar_30_1616,49.9827972158,PL-Tetris_2,001,1,
19,0,19,0,2,19,m,m,no,no,True,j,270,l,270,1.33994790108,2016_Mar_30_1616,49.9827972158,PL-Tetris_2,001,1,
20,0,20,0,2,20,m,m,no,no,True,i,90,s,0,1.06123951764,2016_Mar_30_1616,49.9827972158,PL-Tetris_2,001,1,
21,0,21,0,2,21,m,m,no,no,True,l,180,s,0,1.55922523828,2016_Mar_30_1616,49.9827972158,PL-Tetris_2,001,1,
22,0,22,0,2,22,m,m,no,no,True,z,90,o,0,0.580359868938,2016_Mar_30_1616,49.9827972158,PL-Tetris_2,001,1,
23,0,23,0,2,23,x,x,yes,yes,True,t,0,t,0,0.6001452934,2016_Mar_30_1616,49.9827972158,PL-Tetris_2,001,1,
24,0,24,0,2,24,m,m,no,no,True,t,90,o,0,0.560584707302,2016_Mar_30_1616,49.9827972158,PL-Tetris_2,001,1,
25,0,25,0,2,25,x,x,yes,yes,True,l,90,l,180,2.56030614255,2016_Mar_30_1616,49.9827972158,PL-Tetris_2,001,1,
26,0,26,0,2,26,x,x,yes,yes,True,t,0,t,90,0.8202788505,2016_Mar_30_1616,49.9827972158,PL-Tetris_2,001,1,
27,0,27,0,2,27,x,x,yes,yes,True,l,0,l,90,1.34026971657,2016_Mar_30_1616,49.9827972158,PL-Tetris_2,001,1,
28,0,28,0,2,28,m,m,no,no,True,j,0,z,0,0.6202921191,2016_Mar_30_1616,49.9827972158,PL-Tetris_2,001,1,
29,0,29,0,2,29,m,m,no,no,True,t,270,z,0,2.48004615377,2016_Mar_30_1616,49.9827972158,PL-Tetris_2,001,1,
30,0,30,0,2,30,x,x,yes,yes,True,t,90,t,180,3.22018413863,2016_Mar_30_1616,49.9827972158,PL-Tetris_2,001,1,
31,0,31,0,2,31,m,m,no,no,True,i,90,j,270,0.580542035517,2016_Mar_30_1616,49.9827972158,PL-Tetris_2,001,1,
32,0,32,0,2,32,m,m,no,no,True,s,90,t,90,3.76165894081,2016_Mar_30_1616,49.9827972158,PL-Tetris_2,001,1,
33,0,33,0,2,33,m,m,no,no,True,j,0,s,0,0.720311875222,2016_Mar_30_1616,49.9827972158,PL-Tetris_2,001,1,
34,0,34,0,2,34,x,x,yes,yes,True,t,90,t,270,0.700298467418,2016_Mar_30_1616,49.9827972158,PL-Tetris_2,001,1,
35,0,35,0,2,35,x,x,yes,yes,True,l,270,l,90,1.360256001,2016_Mar_30_1616,49.9827972158,PL-Tetris_2,001,1,
36,0,36,0,2,36,x,x,yes,yes,True,j,0,j,90,0.93895144586,2016_Mar_30_1616,49.9827972158,PL-Tetris_2,001,1,
37,0,37,0,2,37,x,x,yes,yes,True,j,90,j,270,0.820347758709,2016_Mar_30_1616,49.9827972158,PL-Tetris_2,001,1,
38,0,38,0,2,38,m,m,no,no,True,j,180,s,90,0.759457180044,2016_Mar_30_1616,49.9827972158,PL-Tetris_2,001,1,
39,0,39,0,2,39,x,m,yes,no,False,t,180,l,0,2.83956542436,2016_Mar_30_1616,49.9827972158,PL-Tetris_2,001,1,
40,0,40,0,2,40,x,x,yes,yes,True,t,180,t,0,0.640430880943,2016_Mar_30_1616,49.9827972158,PL-Tetris_2,001,1,
41,0,41,0,2,41,x,x,yes,yes,True,j,180,j,270,0.920124137192,2016_Mar_30_1616,49.9827972158,PL-Tetris_2,001,1,
42,0,42,0,2,42,m,m,no,no,True,t,180,j,270,1.20064575702,2016_Mar_30_1616,49.9827972158,PL-Tetris_2,001,1,
43,0,43,0,2,43,m,m,no,no,True,t,270,j,0,0.600151158054,2016_Mar_30_1616,49.9827972158,PL-Tetris_2,001,1,
44,0,44,0,2,44,x,x,yes,yes,True,l,180,l,90,1.34044088726,2016_Mar_30_1616,49.9827972158,PL-Tetris_2,001,1,
45,0,45,0,2,45,m,m,no,no,True,j,0,t,180,0.600456846179,2016_Mar_30_1616,49.9827972158,PL-Tetris_2,001,1,
46,0,46,0,2,46,x,x,yes,yes,True,l,90,l,270,0.780405978672,2016_Mar_30_1616,49.9827972158,PL-Tetris_2,001,1,
47,0,47,0,2,47,m,m,no,no,True,l,180,i,90,0.600788558018,2016_Mar_30_1616,49.9827972158,PL-Tetris_2,001,1,
48,0,48,0,2,48,m,m,no,no,True,t,90,j,0,0.540355045348,2016_Mar_30_1616,49.9827972158,PL-Tetris_2,001,1,
49,0,49,0,2,49,x,x,yes,yes,True,l,90,l,0,1.35977767606,2016_Mar_30_1616,49.9827972158,PL-Tetris_2,001,1,
50,0,50,0,2,50,m,m,no,no,True,s,0,t,90,0.560241632862,2016_Mar_30_1616,49.9827972158,PL-Tetris_2,001,1,
51,0,51,0,2,51,m,m,no,no,True,i,90,l,0,0.880268858862,2016_Mar_30_1616,49.9827972158,PL-Tetris_2,001,1,
52,0,52,0,2,52,x,x,yes,yes,True,t,270,t,270,0.919880759669,2016_Mar_30_1616,49.9827972158,PL-Tetris_2,001,1,
53,0,53,0,2,53,x,x,yes,yes,True,t,180,t,90,0.699916907004,2016_Mar_30_1616,49.9827972158,PL-Tetris_2,001,1,
54,0,54,0,2,54,m,m,no,no,True,l,0,z,0,0.80001400155,2016_Mar_30_1616,49.9827972158,PL-Tetris_2,001,1,
55,0,55,0,2,55,m,m,no,no,True,i,0,j,90,0.640348044573,2016_Mar_30_1616,49.9827972158,PL-Tetris_2,001,1,
56,0,56,0,2,56,x,x,yes,yes,True,t,0,t,270,0.680705472478,2016_Mar_30_1616,49.9827972158,PL-Tetris_2,001,1,
57,0,57,0,2,57,m,m,no,no,True,t,0,j,180,0.800460438128,2016_Mar_30_1616,49.9827972158,PL-Tetris_2,001,1,
58,0,58,0,2,58,m,m,no,no,True,s,0,j,180,0.600621052668,2016_Mar_30_1616,49.9827972158,PL-Tetris_2,001,1,
59,0,59,0,2,59,x,x,yes,yes,True,l,90,l,90,0.920851337723,2016_Mar_30_1616,49.9827972158,PL-Tetris_2,001,1,
60,0,60,0,2,60,m,m,no,no,True,l,90,j,180,1.13942200015,2016_Mar_30_1616,49.9827972158,PL-Tetris_2,001,1,
61,0,61,0,2,61,x,x,yes,yes,True,j,180,j,180,0.92042909225,2016_Mar_30_1616,49.9827972158,PL-Tetris_2,001,1,
62,0,62,0,2,62,x,x,yes,yes,True,t,90,t,0,0.72031957237,2016_Mar_30_1616,49.9827972158,PL-Tetris_2,001,1,
63,0,63,0,2,63,x,x,yes,yes,True,j,180,j,90,1.22025597899,2016_Mar_30_1616,49.9827972158,PL-Tetris_2,001,1,
64,0,64,0,2,64,m,m,no,no,True,t,180,l,180,0.740378796705,2016_Mar_30_1616,49.9827972158,PL-Tetris_2,001,1,
65,0,65,0,2,65,x,x,yes,yes,True,l,180,l,180,0.519765081932,2016_Mar_30_1616,49.9827972158,PL-Tetris_2,001,1,
66,0,66,0,2,66,x,x,yes,yes,True,j,270,j,270,0.700279774261,2016_Mar_30_1616,49.9827972158,PL-Tetris_2,001,1,
67,0,67,0,2,67,m,m,no,no,True,s,0,j,270,1.04027202574,2016_Mar_30_1616,49.9827972158,PL-Tetris_2,001,1,
68,0,68,0,2,68,x,x,yes,yes,True,l,270,l,0,1.0802552239,2016_Mar_30_1616,49.9827972158,PL-Tetris_2,001,1,
69,0,69,0,2,69,x,x,yes,yes,True,t,180,t,270,1.77993388486,2016_Mar_30_1616,49.9827972158,PL-Tetris_2,001,1,
70,0,70,0,2,70,m,m,no,no,True,z,0,l,90,2.60034798598,2016_Mar_30_1616,49.9827972158,PL-Tetris_2,001,1,
71,0,71,0,2,71,m,m,no,no,True,s,0,l,90,0.840546998428,2016_Mar_30_1616,49.9827972158,PL-Tetris_2,001,1,
72,0,72,0,2,72,x,x,yes,yes,True,i,0,i,0,1.26025787019,2016_Mar_30_1616,49.9827972158,PL-Tetris_2,001,1,
73,0,73,0,2,73,x,x,yes,yes,True,j,270,j,90,1.45977763936,2016_Mar_30_1616,49.9827972158,PL-Tetris_2,001,1,
74,0,74,0,2,74,x,x,yes,yes,True,j,90,j,90,0.740099865478,2016_Mar_30_1616,49.9827972158,PL-Tetris_2,001,1,
75,0,75,0,2,75,m,m,no,no,True,j,90,o,0,0.820242930437,2016_Mar_30_1616,49.9827972158,PL-Tetris_2,001,1,
76,0,76,0,2,76,m,m,no,no,True,j,90,l,0,1.42001949227,2016_Mar_30_1616,49.9827972158,PL-Tetris_2,001,1,
77,0,77,0,2,77,x,x,yes,yes,True,j,180,j,0,1.0801177742,2016_Mar_30_1616,49.9827972158,PL-Tetris_2,001,1,
78,0,78,0,2,78,m,m,no,no,True,z,0,j,270,0.760560809402,2016_Mar_30_1616,49.9827972158,PL-Tetris_2,001,1,
79,0,79,0,2,79,x,x,yes,yes,True,z,90,z,90,0.700275009265,2016_Mar_30_1616,49.9827972158,PL-Tetris_2,001,1,
80,0,80,0,2,80,m,m,no,no,True,s,90,z,90,0.935946245794,2016_Mar_30_1616,49.9827972158,PL-Tetris_2,001,1,
81,0,81,0,2,81,m,m,no,no,True,l,270,o,0,0.620641791145,2016_Mar_30_1616,49.9827972158,PL-Tetris_2,001,1,
82,0,82,0,2,82,m,m,no,no,True,t,0,l,180,0.860504693235,2016_Mar_30_1616,49.9827972158,PL-Tetris_2,001,1,
83,0,83,0,2,83,x,m,yes,no,False,i,0,j,180,0.620711432304,2016_Mar_30_1616,49.9827972158,PL-Tetris_2,001,1,
84,0,84,0,2,84,m,m,no,no,True,t,0,l,90,0.640367470798,2016_Mar_30_1616,49.9827972158,PL-Tetris_2,001,1,
85,0,85,0,2,85,x,x,yes,yes,True,l,180,l,270,0.800093539176,2016_Mar_30_1616,49.9827972158,PL-Tetris_2,001,1,
86,0,86,0,2,86,m,m,no,no,True,s,90,i,90,0.620518269716,2016_Mar_30_1616,49.9827972158,PL-Tetris_2,001,1,
87,0,87,0,2,87,m,m,no,no,True,z,0,j,180,0.720651284209,2016_Mar_30_1616,49.9827972158,PL-Tetris_2,001,1,
88,0,88,0,2,88,x,x,yes,yes,True,t,90,t,90,1.02020950266,2016_Mar_30_1616,49.9827972158,PL-Tetris_2,001,1,
89,0,89,0,2,89,m,m,no,no,True,i,0,j,270,0.720035509672,2016_Mar_30_1616,49.9827972158,PL-Tetris_2,001,1,
90,0,90,0,2,90,x,x,yes,yes,True,j,270,j,0,0.801273040706,2016_Mar_30_1616,49.9827972158,PL-Tetris_2,001,1,
91,0,91,0,2,91,x,x,yes,yes,True,i,0,i,90,1.00009456545,2016_Mar_30_1616,49.9827972158,PL-Tetris_2,001,1,
92,0,92,0,2,92,x,x,yes,yes,True,o,0,o,0,0.74026847037,2016_Mar_30_1616,49.9827972158,PL-Tetris_2,001,1,
93,0,93,0,2,93,x,x,yes,yes,True,t,270,t,90,0.680235944339,2016_Mar_30_1616,49.9827972158,PL-Tetris_2,001,1,
94,0,94,0,2,94,x,x,yes,yes,True,t,270,t,0,0.940316046239,2016_Mar_30_1616,49.9827972158,PL-Tetris_2,001,1,
95,0,95,0,2,95,m,m,no,no,True,j,90,t,0,0.680314748781,2016_Mar_30_1616,49.9827972158,PL-Tetris_2,001,1,
96,0,96,0,2,96,m,m,no,no,True,t,0,z,0,0.66040030471,2016_Mar_30_1616,49.9827972158,PL-Tetris_2,001,1,
97,0,97,0,2,97,m,m,no,no,True,t,0,j,270,0.620205250918,2016_Mar_30_1616,49.9827972158,PL-Tetris_2,001,1,
98,0,98,0,2,98,m,m,no,no,True,j,0,o,0,1.16041771509,2016_Mar_30_1616,49.9827972158,PL-Tetris_2,001,1,
99,0,99,0,2,99,x,x,yes,yes,True,z,90,z,0,1.28016131837,2016_Mar_30_1616,49.9827972158,PL-Tetris_2,001,1,
100,0,100,0,2,100,x,x,yes,yes,True,l,270,l,180,1.19916753145,2016_Mar_30_1616,49.9827972158,PL-Tetris_2,001,1,
101,0,101,0,2,101,x,x,yes,yes,True,s,0,s,90,0.960260912543,2016_Mar_30_1616,49.9827972158,PL-Tetris_2,001,1,
102,0,102,0,2,102,x,x,yes,yes,True,j,270,j,180,0.880318707437,2016_Mar_30_1616,49.9827972158,PL-Tetris_2,001,1,
103,0,103,0,2,103,x,x,yes,yes,True,l,0,l,270,1.08028271375,2016_Mar_30_1616,49.9827972158,PL-Tetris_2,001,1,
104,0,104,0,2,104,m,m,no,no,True,t,180,o,0,0.700299933553,2016_Mar_30_1616,49.9827972158,PL-Tetris_2,001,1,
105,0,105,0,2,105,m,m,no,no,True,l,180,t,0,0.679259501747,2016_Mar_30_1616,49.9827972158,PL-Tetris_2,001,1,
106,0,106,0,2,106,x,x,yes,yes,True,s,90,s,90,0.623524569208,2016_Mar_30_1616,49.9827972158,PL-Tetris_2,001,1,
107,0,107,0,2,107,m,m,no,no,True,l,90,t,0,0.641185204848,2016_Mar_30_1616,49.9827972158,PL-Tetris_2,001,1,
108,0,108,0,2,108,m,m,no,no,True,s,90,o,0,0.639704413596,2016_Mar_30_1616,49.9827972158,PL-Tetris_2,001,1,
109,0,109,0,2,109,x,x,yes,yes,True,s,90,s,0,0.760139296995,2016_Mar_30_1616,49.9827972158,PL-Tetris_2,001,1,
110,0,110,0,2,110,x,x,yes,yes,True,l,270,l,270,0.639308558428,2016_Mar_30_1616,49.9827972158,PL-Tetris_2,001,1,
111,0,111,0,2,111,x,x,yes,yes,True,i,90,i,0,0.719715526793,2016_Mar_30_1616,49.9827972158,PL-Tetris_2,001,1,
112,0,112,0,2,112,x,x,yes,yes,True,j,90,j,180,0.740265538101,2016_Mar_30_1616,49.9827972158,PL-Tetris_2,001,1,
113,0,113,0,2,113,m,m,no,no,True,s,0,j,0,0.701033364981,2016_Mar_30_1616,49.9827972158,PL-Tetris_2,001,1,
114,0,114,0,2,114,m,m,no,no,True,t,180,s,0,0.540308862226,2016_Mar_30_1616,49.9827972158,PL-Tetris_2,001,1,
115,0,115,0,2,115,x,x,yes,yes,True,j,0,j,0,0.621266729082,2016_Mar_30_1616,49.9827972158,PL-Tetris_2,001,1,
116,0,116,0,2,116,m,m,no,no,True,i,90,l,270,1.08167003945,2016_Mar_30_1616,49.9827972158,PL-Tetris_2,001,1,
117,0,117,0,2,117,x,x,yes,yes,True,t,270,t,180,0.920396104339,2016_Mar_30_1616,49.9827972158,PL-Tetris_2,001,1,
118,0,118,0,2,118,x,x,yes,yes,True,l,0,l,0,1.00060661137,2016_Mar_30_1616,49.9827972158,PL-Tetris_2,001,1,
119,0,119,0,2,119,x,x,yes,yes,True,t,0,t,180,0.700317893643,2016_Mar_30_1616,49.9827972158,PL-Tetris_2,001,1,
120,0,120,0,2,120,x,m,yes,no,False,j,180,l,270,0.96055267239,2016_Mar_30_1616,49.9827972158,PL-Tetris_2,001,1,
0,0,0,0,3,0,x,x,yes,yes,True,j,180,j,270,0.861415893072,2016_Mar_30_1616,49.9827972158,PL-Tetris_2,001,1,
1,0,1,0,3,1,x,x,yes,yes,True,j,90,j,90,0.580890241428,2016_Mar_30_1616,49.9827972158,PL-Tetris_2,001,1,
2,0,2,0,3,2,x,x,yes,yes,True,t,180,t,180,0.479679987882,2016_Mar_30_1616,49.9827972158,PL-Tetris_2,001,1,
3,0,3,0,3,3,m,m,no,no,True,i,0,t,270,0.860349650029,2016_Mar_30_1616,49.9827972158,PL-Tetris_2,001,1,
4,0,4,0,3,4,x,x,yes,yes,True,l,270,l,0,1.20018282637,2016_Mar_30_1616,49.9827972158,PL-Tetris_2,001,1,
5,0,5,0,3,5,x,x,yes,yes,True,t,0,t,180,0.700213431846,2016_Mar_30_1616,49.9827972158,PL-Tetris_2,001,1,
6,0,6,0,3,6,x,x,yes,yes,True,t,180,t,90,0.719418268884,2016_Mar_30_1616,49.9827972158,PL-Tetris_2,001,1,
7,0,7,0,3,7,m,m,no,no,True,s,0,l,180,0.580090467585,2016_Mar_30_1616,49.9827972158,PL-Tetris_2,001,1,
8,0,8,0,3,8,x,x,yes,yes,True,z,0,z,90,1.10031004983,2016_Mar_30_1616,49.9827972158,PL-Tetris_2,001,1,
9,0,9,0,3,9,m,m,no,no,True,z,90,s,90,0.800576628884,2016_Mar_30_1616,49.9827972158,PL-Tetris_2,001,1,
10,0,10,0,3,10,x,x,yes,yes,True,t,0,t,90,0.620222477941,2016_Mar_30_1616,49.9827972158,PL-Tetris_2,001,1,
11,0,11,0,3,11,m,m,no,no,True,j,270,l,180,0.961496860138,2016_Mar_30_1616,49.9827972158,PL-Tetris_2,001,1,
12,0,12,0,3,12,x,x,yes,yes,True,l,0,l,180,0.921396738151,2016_Mar_30_1616,49.9827972158,PL-Tetris_2,001,1,
13,0,13,0,3,13,m,m,no,no,True,t,270,l,0,0.66032296652,2016_Mar_30_1616,49.9827972158,PL-Tetris_2,001,1,
14,0,14,0,3,14,m,m,no,no,True,l,180,t,180,0.840216386132,2016_Mar_30_1616,49.9827972158,PL-Tetris_2,001,1,
15,0,15,0,3,15,x,x,yes,yes,True,j,270,j,0,0.819913417683,2016_Mar_30_1616,49.9827972158,PL-Tetris_2,001,1,
16,0,16,0,3,16,m,m,no,no,True,s,90,l,180,2.80173597124,2016_Mar_30_1616,49.9827972158,PL-Tetris_2,001,1,
17,0,17,0,3,17,m,m,no,no,True,t,90,z,90,1.31824294582,2016_Mar_30_1616,49.9827972158,PL-Tetris_2,001,1,
18,0,18,0,3,18,x,x,yes,yes,True,j,270,j,90,3.1803240953,2016_Mar_30_1616,49.9827972158,PL-Tetris_2,001,1,
19,0,19,0,3,19,x,x,yes,yes,True,j,0,j,0,0.6402608098,2016_Mar_30_1616,49.9827972158,PL-Tetris_2,001,1,
20,0,20,0,3,20,x,x,yes,yes,True,l,90,l,0,1.12033445353,2016_Mar_30_1616,49.9827972158,PL-Tetris_2,001,1,
21,0,21,0,3,21,m,x,no,yes,False,t,270,t,270,0.499970860663,2016_Mar_30_1616,49.9827972158,PL-Tetris_2,001,1,
22,0,22,0,3,22,x,x,yes,yes,True,s,0,s,90,0.820301575703,2016_Mar_30_1616,49.9827972158,PL-Tetris_2,001,1,
23,0,23,0,3,23,m,m,no,no,True,i,0,t,180,0.700297367875,2016_Mar_30_1616,49.9827972158,PL-Tetris_2,001,1,
24,0,24,0,3,24,m,m,no,no,True,i,90,t,90,0.780161135015,2016_Mar_30_1616,49.9827972158,PL-Tetris_2,001,1,
25,0,25,0,3,25,x,x,yes,yes,True,l,270,l,180,0.881338400766,2016_Mar_30_1616,49.9827972158,PL-Tetris_2,001,1,
26,0,26,0,3,26,x,x,yes,yes,True,t,90,t,0,0.760269049439,2016_Mar_30_1616,49.9827972158,PL-Tetris_2,001,1,
27,0,27,0,3,27,x,x,yes,yes,True,j,0,j,90,0.660350089776,2016_Mar_30_1616,49.9827972158,PL-Tetris_2,001,1,
28,0,28,0,3,28,m,m,no,no,True,j,0,l,180,1.36145786115,2016_Mar_30_1616,49.9827972158,PL-Tetris_2,001,1,
29,0,29,0,3,29,m,m,no,no,True,l,0,i,90,0.681714536389,2016_Mar_30_1616,49.9827972158,PL-Tetris_2,001,1,
30,0,30,0,3,30,x,x,yes,yes,True,t,180,t,270,1.38033648417,2016_Mar_30_1616,49.9827972158,PL-Tetris_2,001,1,
31,0,31,0,3,31,m,m,no,no,True,j,0,i,90,0.740122957039,2016_Mar_30_1616,49.9827972158,PL-Tetris_2,001,1,
32,0,32,0,3,32,x,x,yes,yes,True,i,0,i,90,0.860440916615,2016_Mar_30_1616,49.9827972158,PL-Tetris_2,001,1,
33,0,33,0,3,33,x,x,yes,yes,True,l,0,l,90,1.05961724475,2016_Mar_30_1616,49.9827972158,PL-Tetris_2,001,1,
34,0,34,0,3,34,x,x,yes,yes,True,t,90,t,180,0.799847595743,2016_Mar_30_1616,49.9827972158,PL-Tetris_2,001,1,
35,0,35,0,3,35,x,x,yes,yes,True,l,180,l,0,0.780302983127,2016_Mar_30_1616,49.9827972158,PL-Tetris_2,001,1,
36,0,36,0,3,36,m,m,no,no,True,j,90,z,90,0.640154515393,2016_Mar_30_1616,49.9827972158,PL-Tetris_2,001,1,
37,0,37,0,3,37,m,m,no,no,True,z,0,l,180,0.940468523884,2016_Mar_30_1616,49.9827972158,PL-Tetris_2,001,1,
38,0,38,0,3,38,m,m,no,no,True,o,0,j,0,0.600404798519,2016_Mar_30_1616,49.9827972158,PL-Tetris_2,001,1,
39,0,39,0,3,39,x,x,yes,yes,True,i,0,i,0,0.720279986854,2016_Mar_30_1616,49.9827972158,PL-Tetris_2,001,1,
40,0,40,0,3,40,m,m,no,no,True,o,0,z,0,0.720399842947,2016_Mar_30_1616,49.9827972158,PL-Tetris_2,001,1,
41,0,41,0,3,41,m,m,no,no,True,t,90,l,90,0.560165394098,2016_Mar_30_1616,49.9827972158,PL-Tetris_2,001,1,
42,0,42,0,3,42,m,x,no,yes,False,j,0,j,270,1.28053774708,2016_Mar_30_1616,49.9827972158,PL-Tetris_2,001,1,
43,0,43,0,3,43,m,m,no,no,True,z,0,i,90,0.659148229752,2016_Mar_30_1616,49.9827972158,PL-Tetris_2,001,1,
44,0,44,0,3,44,x,x,yes,yes,True,t,90,t,90,0.640236618696,2016_Mar_30_1616,49.9827972158,PL-Tetris_2,001,1,
45,0,45,0,3,45,m,m,no,no,True,t,90,l,180,0.920394271729,2016_Mar_30_1616,49.9827972158,PL-Tetris_2,001,1,
46,0,46,0,3,46,x,m,yes,no,False,l,90,i,90,0.700179710868,2016_Mar_30_1616,49.9827972158,PL-Tetris_2,001,1,
47,0,47,0,3,47,m,m,no,no,True,l,180,z,0,0.99876551854,2016_Mar_30_1616,49.9827972158,PL-Tetris_2,001,1,
48,0,48,0,3,48,m,m,no,no,True,s,0,z,0,1.00177731609,2016_Mar_30_1616,49.9827972158,PL-Tetris_2,001,1,
49,0,49,0,3,49,x,x,yes,yes,True,l,0,l,270,1.34021950164,2016_Mar_30_1616,49.9827972158,PL-Tetris_2,001,1,
50,0,50,0,3,50,x,x,yes,yes,True,l,180,l,90,1.42037502863,2016_Mar_30_1616,49.9827972158,PL-Tetris_2,001,1,
51,0,51,0,3,51,x,x,yes,yes,True,j,180,j,90,0.860309331445,2016_Mar_30_1616,49.9827972158,PL-Tetris_2,001,1,
52,0,52,0,3,52,x,x,yes,yes,True,j,270,j,270,0.620236772695,2016_Mar_30_1616,49.9827972158,PL-Tetris_2,001,1,
53,0,53,0,3,53,m,m,no,no,True,o,0,j,180,0.620265728794,2016_Mar_30_1616,49.9827972158,PL-Tetris_2,001,1,
54,0,54,0,3,54,m,m,no,no,True,l,180,j,270,1.5005426514,2016_Mar_30_1616,49.9827972158,PL-Tetris_2,001,1,
55,0,55,0,3,55,x,m,yes,no,False,j,90,s,0,0.980360821937,2016_Mar_30_1616,49.9827972158,PL-Tetris_2,001,1,
56,0,56,0,3,56,m,m,no,no,True,j,270,t,270,0.720167827909,2016_Mar_30_1616,49.9827972158,PL-Tetris_2,001,1,
57,0,57,0,3,57,m,m,no,no,True,t,0,o,0,0.700394132407,2016_Mar_30_1616,49.9827972158,PL-Tetris_2,001,1,
58,0,58,0,3,58,m,m,no,no,True,t,180,j,90,0.660248560249,2016_Mar_30_1616,49.9827972158,PL-Tetris_2,001,1,
59,0,59,0,3,59,m,m,no,no,True,t,0,s,0,0.7207293557,2016_Mar_30_1616,49.9827972158,PL-Tetris_2,001,1,
60,0,60,0,3,60,m,m,no,no,True,l,270,z,0,1.28015178838,2016_Mar_30_1616,49.9827972158,PL-Tetris_2,001,1,
61,0,61,0,3,61,x,x,yes,yes,True,i,90,i,90,0.859863994527,2016_Mar_30_1616,49.9827972158,PL-Tetris_2,001,1,
62,0,62,0,3,62,m,m,no,no,True,j,270,s,90,0.740283498191,2016_Mar_30_1616,49.9827972158,PL-Tetris_2,001,1,
63,0,63,0,3,63,m,m,no,no,True,l,270,j,270,1.30060650129,2016_Mar_30_1616,49.9827972158,PL-Tetris_2,001,1,
64,0,64,0,3,64,x,x,yes,yes,True,t,90,t,270,0.698931667721,2016_Mar_30_1616,49.9827972158,PL-Tetris_2,001,1,
65,0,65,0,3,65,x,x,yes,yes,True,z,90,z,0,1.34010074509,2016_Mar_30_1616,49.9827972158,PL-Tetris_2,001,1,
66,0,66,0,3,66,m,m,no,no,True,i,0,l,0,0.526630602311,2016_Mar_30_1616,49.9827972158,PL-Tetris_2,001,1,
67,0,67,0,3,67,x,x,yes,yes,True,l,180,l,270,0.980430829572,2016_Mar_30_1616,49.9827972158,PL-Tetris_2,001,1,
68,0,68,0,3,68,x,x,yes,yes,True,t,180,t,0,0.68005561037,2016_Mar_30_1616,49.9827972158,PL-Tetris_2,001,1,
69,0,69,0,3,69,x,x,yes,yes,True,s,90,s,90,0.620392548968,2016_Mar_30_1616,49.9827972158,PL-Tetris_2,001,1,
70,0,70,0,3,70,m,m,no,no,True,o,0,i,0,0.580161574879,2016_Mar_30_1616,49.9827972158,PL-Tetris_2,001,1,
71,0,71,0,3,71,x,x,yes,yes,True,t,0,t,0,0.64060828276,2016_Mar_30_1616,49.9827972158,PL-Tetris_2,001,1,
72,0,72,0,3,72,x,x,yes,yes,True,j,90,j,270,1.26084139,2016_Mar_30_1616,49.9827972158,PL-Tetris_2,001,1,
73,0,73,0,3,73,x,x,yes,yes,True,t,270,t,180,0.660689132405,2016_Mar_30_1616,49.9827972158,PL-Tetris_2,001,1,
74,0,74,0,3,74,x,x,yes,yes,True,l,90,l,90,0.540114233503,2016_Mar_30_1616,49.9827972158,PL-Tetris_2,001,1,
75,0,75,0,3,75,m,m,no,no,True,s,0,t,0,0.680690811132,2016_Mar_30_1616,49.9827972158,PL-Tetris_2,001,1,
76,0,76,0,3,76,m,m,no,no,True,s,90,j,90,0.640197033295,2016_Mar_30_1616,49.9827972158,PL-Tetris_2,001,1,
77,0,77,0,3,77,x,x,yes,yes,True,z,90,z,90,0.621080530458,2016_Mar_30_1616,49.9827972158,PL-Tetris_2,001,1,
78,0,78,0,3,78,x,x,yes,yes,True,l,270,l,90,0.879807761055,2016_Mar_30_1616,49.9827972158,PL-Tetris_2,001,1,
79,0,79,0,3,79,m,m,no,no,True,i,90,t,270,0.480096735293,2016_Mar_30_1616,49.9827972158,PL-Tetris_2,001,1,
80,0,80,0,3,80,m,m,no,no,True,o,0,s,90,0.460103486781,2016_Mar_30_1616,49.9827972158,PL-Tetris_2,001,1,
81,0,81,0,3,81,m,m,no,no,True,z,0,i,0,0.580479725148,2016_Mar_30_1616,49.9827972158,PL-Tetris_2,001,1,
82,0,82,0,3,82,m,m,no,no,True,j,270,z,0,0.440268580336,2016_Mar_30_1616,49.9827972158,PL-Tetris_2,001,1,
83,0,83,0,3,83,m,m,no,no,True,j,180,t,180,1.19987933745,2016_Mar_30_1616,49.9827972158,PL-Tetris_2,001,1,
84,0,84,0,3,84,x,x,yes,yes,True,l,180,l,180,0.620407576789,2016_Mar_30_1616,49.9827972158,PL-Tetris_2,001,1,
85,0,85,0,3,85,m,m,no,no,True,z,0,o,0,0.480111396522,2016_Mar_30_1616,49.9827972158,PL-Tetris_2,001,1,
86,0,86,0,3,86,m,x,no,yes,False,o,0,o,0,0.600526487338,2016_Mar_30_1616,49.9827972158,PL-Tetris_2,001,1,
87,0,87,0,3,87,x,x,yes,yes,True,z,0,z,0,0.778723227908,2016_Mar_30_1616,49.9827972158,PL-Tetris_2,001,1,
88,0,88,0,3,88,x,x,yes,yes,True,l,90,l,180,1.20030598133,2016_Mar_30_1616,49.9827972158,PL-Tetris_2,001,1,
89,0,89,0,3,89,x,x,yes,yes,True,j,180,j,0,0.699673895957,2016_Mar_30_1616,49.9827972158,PL-Tetris_2,001,1,
90,0,90,0,3,90,x,x,yes,yes,True,l,270,l,270,0.600354583585,2016_Mar_30_1616,49.9827972158,PL-Tetris_2,001,1,
91,0,91,0,3,91,m,m,no,no,True,t,270,i,0,1.54013182712,2016_Mar_30_1616,49.9827972158,PL-Tetris_2,001,1,
92,0,92,0,3,92,m,m,no,no,True,l,0,t,180,0.640534976264,2016_Mar_30_1616,49.9827972158,PL-Tetris_2,001,1,
93,0,93,0,3,93,m,m,no,no,True,j,270,t,0,1.02032679308,2016_Mar_30_1616,49.9827972158,PL-Tetris_2,001,1,
94,0,94,0,3,94,m,m,no,no,True,t,90,l,0,0.939907362568,2016_Mar_30_1616,49.9827972158,PL-Tetris_2,001,1,
95,0,95,0,3,95,m,x,no,yes,False,j,270,j,180,1.62048161635,2016_Mar_30_1616,49.9827972158,PL-Tetris_2,001,1,
96,0,96,0,3,96,m,m,no,no,True,t,180,l,90,2.10034047207,2016_Mar_30_1616,49.9827972158,PL-Tetris_2,001,1,
97,0,97,0,3,97,x,x,yes,yes,True,j,90,j,180,1.52090316545,2016_Mar_30_1616,49.9827972158,PL-Tetris_2,001,1,
98,0,98,0,3,98,m,m,no,no,True,j,90,z,0,1.00069531216,2016_Mar_30_1616,49.9827972158,PL-Tetris_2,001,1,
99,0,99,0,3,99,x,x,yes,yes,True,l,90,l,270,1.30049874075,2016_Mar_30_1616,49.9827972158,PL-Tetris_2,001,1,
100,0,100,0,3,100,x,x,yes,yes,True,s,0,s,0,0.640098436037,2016_Mar_30_1616,49.9827972158,PL-Tetris_2,001,1,
101,0,101,0,3,101,m,m,no,no,True,i,0,l,270,0.560596436379,2016_Mar_30_1616,49.9827972158,PL-Tetris_2,001,1,
102,0,102,0,3,102,x,x,yes,yes,True,t,270,t,0,0.760529287509,2016_Mar_30_1616,49.9827972158,PL-Tetris_2,001,1,
103,0,103,0,3,103,m,m,no,no,True,j,0,l,90,1.48139132804,2016_Mar_30_1616,49.9827972158,PL-Tetris_2,001,1,
104,0,104,0,3,104,m,m,no,no,True,t,0,i,0,0.560478779487,2016_Mar_30_1616,49.9827972158,PL-Tetris_2,001,1,
105,0,105,0,3,105,x,x,yes,yes,True,l,0,l,0,0.660359986243,2016_Mar_30_1616,49.9827972158,PL-Tetris_2,001,1,
106,0,106,0,3,106,m,m,no,no,True,i,90,l,90,0.721776539111,2016_Mar_30_1616,49.9827972158,PL-Tetris_2,001,1,
107,0,107,0,3,107,x,x,yes,yes,True,j,90,j,0,1.16014281567,2016_Mar_30_1616,49.9827972158,PL-Tetris_2,001,1,
108,0,108,0,3,108,m,m,no,no,True,j,270,z,90,0.860025268747,2016_Mar_30_1616,49.9827972158,PL-Tetris_2,001,1,
109,0,109,0,3,109,m,m,no,no,True,j,90,l,90,1.36092125741,2016_Mar_30_1616,49.9827972158,PL-Tetris_2,001,1,
110,0,110,0,3,110,m,m,no,no,True,z,90,s,0,1.37990397587,2016_Mar_30_1616,49.9827972158,PL-Tetris_2,001,1,
111,0,111,0,3,111,m,m,no,no,True,t,90,z,0,0.620026016375,2016_Mar_30_1616,49.9827972158,PL-Tetris_2,001,1,
112,0,112,0,3,112,x,x,yes,yes,True,i,90,i,0,0.920230065123,2016_Mar_30_1616,49.9827972158,PL-Tetris_2,001,1,
113,0,113,0,3,113,m,m,no,no,True,s,0,l,270,1.42049305211,2016_Mar_30_1616,49.9827972158,PL-Tetris_2,001,1,
114,0,114,0,3,114,x,x,yes,yes,True,s,90,s,0,1.48217094271,2016_Mar_30_1616,49.9827972158,PL-Tetris_2,001,1,
115,0,115,0,3,115,m,m,no,no,True,z,0,l,0,0.680432772264,2016_Mar_30_1616,49.9827972158,PL-Tetris_2,001,1,
116,0,116,0,3,116,m,m,no,no,True,t,270,l,180,0.620243736776,2016_Mar_30_1616,49.9827972158,PL-Tetris_2,001,1,
117,0,117,0,3,117,m,x,no,yes,False,t,0,t,270,0.539012803347,2016_Mar_30_1616,49.9827972158,PL-Tetris_2,001,1,
118,0,118,0,3,118,x,x,yes,yes,True,j,180,j,180,0.63913225627,2016_Mar_30_1616,49.9827972158,PL-Tetris_2,001,1,
119,0,119,0,3,119,x,x,yes,yes,True,t,270,t,90,0.680554827559,2016_Mar_30_1616,49.9827972158,PL-Tetris_2,001,1,
120,0,120,0,3,120,x,x,yes,yes,True,j,0,j,180,0.880145337549,2016_Mar_30_1616,49.9827972158,PL-Tetris_2,001,1,
0,0,0,0,4,0,x,m,yes,no,False,s,90,z,0,0.658947003423,2016_Mar_30_1616,49.9827972158,PL-Tetris_2,001,1,
1,0,1,0,4,1,m,m,no,no,True,t,270,j,270,0.801471334766,2016_Mar_30_1616,49.9827972158,PL-Tetris_2,001,1,
2,0,2,0,4,2,m,m,no,no,True,l,180,s,90,1.12075816514,2016_Mar_30_1616,49.9827972158,PL-Tetris_2,001,1,
3,0,3,0,4,3,x,x,yes,yes,True,s,0,s,90,3.14045855415,2016_Mar_30_1616,49.9827972158,PL-Tetris_2,001,1,
4,0,4,0,4,4,x,x,yes,yes,True,i,0,i,90,0.600144560449,2016_Mar_30_1616,49.9827972158,PL-Tetris_2,001,1,
5,0,5,0,4,5,x,x,yes,yes,True,t,270,t,90,0.660315635847,2016_Mar_30_1616,49.9827972158,PL-Tetris_2,001,1,
6,0,6,0,4,6,x,x,yes,yes,True,z,90,z,90,0.58141731529,2016_Mar_30_1616,49.9827972158,PL-Tetris_2,001,1,
7,0,7,0,4,7,m,m,no,no,True,o,0,l,90,0.813532819855,2016_Mar_30_1616,49.9827972158,PL-Tetris_2,001,1,
8,0,8,0,4,8,m,m,no,no,True,i,0,z,90,0.960353278671,2016_Mar_30_1616,49.9827972158,PL-Tetris_2,001,1,
9,0,9,0,4,9,m,m,no,no,True,l,270,j,180,1.60042862315,2016_Mar_30_1616,49.9827972158,PL-Tetris_2,001,1,
10,0,10,0,4,10,m,m,no,no,True,t,90,j,270,0.960514553008,2016_Mar_30_1616,49.9827972158,PL-Tetris_2,001,1,
11,0,11,0,4,11,m,m,no,no,True,j,90,i,90,0.720430998248,2016_Mar_30_1616,49.9827972158,PL-Tetris_2,001,1,
12,0,12,0,4,12,x,x,yes,yes,True,j,270,j,270,0.780285756104,2016_Mar_30_1616,49.9827972158,PL-Tetris_2,001,1,
13,0,13,0,4,13,x,x,yes,yes,True,l,180,l,180,1.76036434795,2016_Mar_30_1616,49.9827972158,PL-Tetris_2,001,1,
14,0,14,0,4,14,x,x,yes,yes,True,z,0,z,0,0.540400128812,2016_Mar_30_1616,49.9827972158,PL-Tetris_2,001,1,
15,0,15,0,4,15,m,m,no,no,True,z,0,j,0,0.680345903966,2016_Mar_30_1616,49.9827972158,PL-Tetris_2,001,1,
16,0,16,0,4,16,m,m,no,no,True,t,180,j,180,0.820465782192,2016_Mar_30_1616,49.9827972158,PL-Tetris_2,001,1,
17,0,17,0,4,17,m,m,no,no,True,l,0,i,0,1.7610512299,2016_Mar_30_1616,49.9827972158,PL-Tetris_2,001,1,
18,0,18,0,4,18,m,m,no,no,True,j,90,t,180,0.92037411232,2016_Mar_30_1616,49.9827972158,PL-Tetris_2,001,1,
19,0,19,0,4,19,x,x,yes,yes,True,j,180,j,90,0.83904348209,2016_Mar_30_1616,49.9827972158,PL-Tetris_2,001,1,
20,0,20,0,4,20,m,m,no,no,True,i,0,o,0,1.70105022553,2016_Mar_30_1616,49.9827972158,PL-Tetris_2,001,1,
21,0,21,0,4,21,m,m,no,no,True,t,0,i,90,0.660099381581,2016_Mar_30_1616,49.9827972158,PL-Tetris_2,001,1,
22,0,22,0,4,22,m,m,no,no,True,l,0,t,0,0.720608033473,2016_Mar_30_1616,49.9827972158,PL-Tetris_2,001,1,
23,0,23,0,4,23,m,m,no,no,True,j,180,l,180,1.02042465727,2016_Mar_30_1616,49.9827972158,PL-Tetris_2,001,1,
24,0,24,0,4,24,m,m,no,no,True,t,180,s,90,0.860299435095,2016_Mar_30_1616,49.9827972158,PL-Tetris_2,001,1,
25,0,25,0,4,25,x,x,yes,yes,True,t,270,t,270,2.36051843828,2016_Mar_30_1616,49.9827972158,PL-Tetris_2,001,1,
26,0,26,0,4,26,m,m,no,no,True,l,0,j,180,2.84053710196,2016_Mar_30_1616,49.9827972158,PL-Tetris_2,001,1,
27,0,27,0,4,27,m,x,no,yes,False,z,90,z,0,2.00026353681,2016_Mar_30_1616,49.9827972158,PL-Tetris_2,001,1,
28,0,28,0,4,28,x,x,yes,yes,True,l,0,l,90,1.24132793269,2016_Mar_30_1616,49.9827972158,PL-Tetris_2,001,1,
29,0,29,0,4,29,m,m,no,no,True,i,90,s,90,0.719393344712,2016_Mar_30_1616,49.9827972158,PL-Tetris_2,001,1,
30,0,30,0,4,30,x,x,yes,yes,True,i,90,i,90,0.680119753582,2016_Mar_30_1616,49.9827972158,PL-Tetris_2,001,1,
31,0,31,0,4,31,x,x,yes,yes,True,t,270,t,180,0.760168619687,2016_Mar_30_1616,49.9827972158,PL-Tetris_2,001,1,
32,0,32,0,4,32,m,m,no,no,True,o,0,j,270,0.680379991536,2016_Mar_30_1616,49.9827972158,PL-Tetris_2,001,1,
33,0,33,0,4,33,m,m,no,no,True,i,90,j,90,0.798879583483,2016_Mar_30_1616,49.9827972158,PL-Tetris_2,001,1,
34,0,34,0,4,34,m,x,no,yes,False,t,90,t,180,0.439840836916,2016_Mar_30_1616,49.9827972158,PL-Tetris_2,001,1,
35,0,35,0,4,35,m,m,no,no,True,j,270,t,180,0.579440238886,2016_Mar_30_1616,49.9827972158,PL-Tetris_2,001,1,
36,0,36,0,4,36,m,m,no,no,True,l,0,j,270,1.18182431289,2016_Mar_30_1616,49.9827972158,PL-Tetris_2,001,1,
37,0,37,0,4,37,m,m,no,no,True,j,180,z,90,0.640340713901,2016_Mar_30_1616,49.9827972158,PL-Tetris_2,001,1,
38,0,38,0,4,38,m,m,no,no,True,j,90,i,0,0.959876053268,2016_Mar_30_1616,49.9827972158,PL-Tetris_2,001,1,
39,0,39,0,4,39,m,x,no,yes,False,j,90,j,180,1.08155531471,2016_Mar_30_1616,49.9827972158,PL-Tetris_2,001,1,
40,0,40,0,4,40,m,x,no,yes,False,j,90,j,0,1.16029602627,2016_Mar_30_1616,49.9827972158,PL-Tetris_2,001,1,
41,0,41,0,4,41,x,x,yes,yes,True,l,0,l,0,0.600218233536,2016_Mar_30_1616,49.9827972158,PL-Tetris_2,001,1,
42,0,42,0,4,42,m,m,no,no,True,z,90,j,180,0.94036516163,2016_Mar_30_1616,49.9827972158,PL-Tetris_2,001,1,
43,0,43,0,4,43,x,x,yes,yes,True,t,0,t,90,1.0403508303,2016_Mar_30_1616,49.9827972158,PL-Tetris_2,001,1,
44,0,44,0,4,44,m,m,no,no,True,l,270,i,90,0.740486190771,2016_Mar_30_1616,49.9827972158,PL-Tetris_2,001,1,
45,0,45,0,4,45,x,x,yes,yes,True,z,0,z,90,1.10006520618,2016_Mar_30_1616,49.9827972158,PL-Tetris_2,001,1,
46,0,46,0,4,46,x,x,yes,yes,True,s,90,s,90,0.560283417581,2016_Mar_30_1616,49.9827972158,PL-Tetris_2,001,1,
47,0,47,0,4,47,m,m,no,no,True,i,90,l,180,0.780070235021,2016_Mar_30_1616,49.9827972158,PL-Tetris_2,001,1,
48,0,48,0,4,48,x,x,yes,yes,True,t,90,t,270,1.39985214081,2016_Mar_30_1616,49.9827972158,PL-Tetris_2,001,1,
49,0,49,0,4,49,x,x,yes,yes,True,t,180,t,270,2.64028170228,2016_Mar_30_1616,49.9827972158,PL-Tetris_2,001,1,
50,0,50,0,4,50,x,x,yes,yes,True,s,0,s,0,0.660257723648,2016_Mar_30_1616,49.9827972158,PL-Tetris_2,001,1,
51,0,51,0,4,51,x,x,yes,yes,True,l,270,l,270,0.760196842602,2016_Mar_30_1616,49.9827972158,PL-Tetris_2,001,1,
52,0,52,0,4,52,m,m,no,no,True,t,90,j,180,0.700587294996,2016_Mar_30_1616,49.9827972158,PL-Tetris_2,001,1,
53,0,53,0,4,53,x,x,yes,yes,True,l,0,l,180,1.04035522859,2016_Mar_30_1616,49.9827972158,PL-Tetris_2,001,1,
54,0,54,0,4,54,x,x,yes,yes,True,l,180,l,270,0.940549160936,2016_Mar_30_1616,49.9827972158,PL-Tetris_2,001,1,
55,0,55,0,4,55,x,x,yes,yes,True,t,180,t,90,0.799028029083,2016_Mar_30_1616,49.9827972158,PL-Tetris_2,001,1,
56,0,56,0,4,56,x,x,yes,yes,True,l,180,l,0,1.02044041816,2016_Mar_30_1616,49.9827972158,PL-Tetris_2,001,1,
57,0,57,0,4,57,x,x,yes,yes,True,t,270,t,0,1.18026838242,2016_Mar_30_1616,49.9827972158,PL-Tetris_2,001,1,
58,0,58,0,4,58,m,m,no,no,True,l,90,s,90,1.1401136471,2016_Mar_30_1616,49.9827972158,PL-Tetris_2,001,1,
59,0,59,0,4,59,x,x,yes,yes,True,l,270,l,0,0.960352912196,2016_Mar_30_1616,49.9827972158,PL-Tetris_2,001,1,
60,0,60,0,4,60,m,m,no,no,True,j,180,o,0,0.520153606427,2016_Mar_30_1616,49.9827972158,PL-Tetris_2,001,1,
61,0,61,0,4,61,x,x,yes,yes,True,j,0,j,180,0.841112924623,2016_Mar_30_1616,49.9827972158,PL-Tetris_2,001,1,
62,0,62,0,4,62,m,m,no,no,True,i,0,l,90,0.960339716985,2016_Mar_30_1616,49.9827972158,PL-Tetris_2,001,1,
63,0,63,0,4,63,x,x,yes,yes,True,j,180,j,270,1.81992551323,2016_Mar_30_1616,49.9827972158,PL-Tetris_2,001,1,
64,0,64,0,4,64,m,m,no,no,True,l,270,t,180,3.14068617078,2016_Mar_30_1616,49.9827972158,PL-Tetris_2,001,1,
65,0,65,0,4,65,m,m,no,no,True,i,0,s,0,1.06833851908,2016_Mar_30_1616,49.9827972158,PL-Tetris_2,001,1,
66,0,66,0,4,66,m,m,no,no,True,j,180,i,90,3.46016689693,2016_Mar_30_1616,49.9827972158,PL-Tetris_2,001,1,
67,0,67,0,4,67,x,x,yes,yes,True,j,90,j,90,0.760517925024,2016_Mar_30_1616,49.9827972158,PL-Tetris_2,001,1,
68,0,68,0,4,68,x,x,yes,yes,True,t,180,t,180,0.9401129873,2016_Mar_30_1616,49.9827972158,PL-Tetris_2,001,1,
69,0,69,0,4,69,m,m,no,no,True,s,90,j,180,0.600372910267,2016_Mar_30_1616,49.9827972158,PL-Tetris_2,001,1,
70,0,70,0,4,70,m,m,no,no,True,o,0,s,0,0.500332261669,2016_Mar_30_1616,49.9827972158,PL-Tetris_2,001,1,
71,0,71,0,4,71,m,m,no,no,True,j,270,i,90,0.460557254031,2016_Mar_30_1616,49.9827972158,PL-Tetris_2,001,1,
72,0,72,0,4,72,m,m,no,no,True,l,0,j,90,1.34161195857,2016_Mar_30_1616,49.9827972158,PL-Tetris_2,001,1,
73,0,73,0,4,73,x,x,yes,yes,True,t,90,t,90,0.600405164994,2016_Mar_30_1616,49.9827972158,PL-Tetris_2,001,1,
74,0,74,0,4,74,m,m,no,no,True,s,0,j,90,0.460011120536,2016_Mar_30_1616,49.9827972158,PL-Tetris_2,001,1,
75,0,75,0,4,75,x,x,yes,yes,True,t,0,t,0,0.581106129102,2016_Mar_30_1616,49.9827972158,PL-Tetris_2,001,1,
76,0,76,0,4,76,m,m,no,no,True,i,90,j,180,0.620515703922,2016_Mar_30_1616,49.9827972158,PL-Tetris_2,001,1,
77,0,77,0,4,77,x,x,yes,yes,True,j,180,j,0,0.738882977515,2016_Mar_30_1616,49.9827972158,PL-Tetris_2,001,1,
78,0,78,0,4,78,m,m,no,no,True,t,0,l,270,1.58071027405,2016_Mar_30_1616,49.9827972158,PL-Tetris_2,001,1,
79,0,79,0,4,79,x,x,yes,yes,True,s,90,s,0,1.8203609538,2016_Mar_30_1616,49.9827972158,PL-Tetris_2,001,1,
80,0,80,0,4,80,m,m,no,no,True,z,0,t,90,0.700254849973,2016_Mar_30_1616,49.9827972158,PL-Tetris_2,001,1,
81,0,81,0,4,81,m,m,no,no,True,l,180,j,90,1.38035004598,2016_Mar_30_1616,49.9827972158,PL-Tetris_2,001,1,
82,0,82,0,4,82,x,x,yes,yes,True,j,90,j,270,0.780157469795,2016_Mar_30_1616,49.9827972158,PL-Tetris_2,001,1,
83,0,83,0,4,83,m,m,no,no,True,t,90,s,90,1.58042511169,2016_Mar_30_1616,49.9827972158,PL-Tetris_2,001,1,
84,0,84,0,4,84,m,m,no,no,True,o,0,z,90,1.92084913852,2016_Mar_30_1616,49.9827972158,PL-Tetris_2,001,1,
85,0,85,0,4,85,m,m,no,no,True,l,0,s,0,1.68016300432,2016_Mar_30_1616,49.9827972158,PL-Tetris_2,001,1,
86,0,86,0,4,86,x,x,yes,yes,True,j,270,j,0,1.54031216109,2016_Mar_30_1616,49.9827972158,PL-Tetris_2,001,1,
87,0,87,0,4,87,m,m,no,no,True,l,90,s,0,1.42038455862,2016_Mar_30_1616,49.9827972158,PL-Tetris_2,001,1,
88,0,88,0,4,88,m,m,no,no,True,l,0,z,90,1.00050398218,2016_Mar_30_1616,49.9827972158,PL-Tetris_2,001,1,
89,0,89,0,4,89,m,m,no,no,True,z,90,t,180,0.865013043047,2016_Mar_30_1616,49.9827972158,PL-Tetris_2,001,1,
90,0,90,0,4,90,m,x,no,yes,False,l,90,l,0,0.721412205719,2016_Mar_30_1616,49.9827972158,PL-Tetris_2,001,1,
91,0,91,0,4,91,x,x,yes,yes,True,j,0,j,90,0.821730319294,2016_Mar_30_1616,49.9827972158,PL-Tetris_2,001,1,
92,0,92,0,4,92,x,x,yes,yes,True,l,0,l,270,0.999837626121,2016_Mar_30_1616,49.9827972158,PL-Tetris_2,001,1,
93,0,93,0,4,93,x,x,yes,yes,True,j,0,j,270,0.680276262923,2016_Mar_30_1616,49.9827972158,PL-Tetris_2,001,1,
94,0,94,0,4,94,x,x,yes,yes,True,l,90,l,180,1.33387079218,2016_Mar_30_1616,49.9827972158,PL-Tetris_2,001,1,
95,0,95,0,4,95,m,m,no,no,True,z,90,j,0,0.640347678098,2016_Mar_30_1616,49.9827972158,PL-Tetris_2,001,1,
96,0,96,0,4,96,x,x,yes,yes,True,t,0,t,270,0.719940211158,2016_Mar_30_1616,49.9827972158,PL-Tetris_2,001,1,
97,0,97,0,4,97,m,m,no,no,True,o,0,l,180,0.780439333292,2016_Mar_30_1616,49.9827972158,PL-Tetris_2,001,1,
98,0,98,0,4,98,x,x,yes,yes,True,l,90,l,90,0.660470312461,2016_Mar_30_1616,49.9827972158,PL-Tetris_2,001,1,
99,0,99,0,4,99,m,m,no,no,True,t,270,i,90,0.620432501077,2016_Mar_30_1616,49.9827972158,PL-Tetris_2,001,1,
100,0,100,0,4,100,x,x,yes,yes,True,t,90,t,0,1.38042261929,2016_Mar_30_1616,49.9827972158,PL-Tetris_2,001,1,
101,0,101,0,4,101,x,x,yes,yes,True,t,180,t,0,1.62016749801,2016_Mar_30_1616,49.9827972158,PL-Tetris_2,001,1,
102,0,102,0,4,102,x,x,yes,yes,True,j,270,j,180,0.900270171114,2016_Mar_30_1616,49.9827972158,PL-Tetris_2,001,1,
103,0,103,0,4,103,x,x,yes,yes,True,o,0,o,0,0.620527799474,2016_Mar_30_1616,49.9827972158,PL-Tetris_2,001,1,
104,0,104,0,4,104,m,m,no,no,True,l,270,j,0,1.06006368133,2016_Mar_30_1616,49.9827972158,PL-Tetris_2,001,1,
105,0,105,0,4,105,x,x,yes,yes,True,i,90,i,0,0.580558529589,2016_Mar_30_1616,49.9827972158,PL-Tetris_2,001,1,
106,0,106,0,4,106,m,m,no,no,True,t,180,j,0,0.640201065107,2016_Mar_30_1616,49.9827972158,PL-Tetris_2,001,1,
107,0,107,0,4,107,x,x,yes,yes,True,i,0,i,0,0.820340061444,2016_Mar_30_1616,49.9827972158,PL-Tetris_2,001,1,
108,0,108,0,4,108,m,m,no,no,True,i,0,j,0,1.50050269929,2016_Mar_30_1616,49.9827972158,PL-Tetris_2,001,1,
109,0,109,0,4,109,x,x,yes,yes,True,j,270,j,90,1.2588848396,2016_Mar_30_1616,49.9827972158,PL-Tetris_2,001,1,
110,0,110,0,4,110,m,m,no,no,True,t,180,l,270,0.63897574693,2016_Mar_30_1616,49.9827972158,PL-Tetris_2,001,1,
111,0,111,0,4,111,x,x,yes,yes,True,l,270,l,90,0.940020987648,2016_Mar_30_1616,49.9827972158,PL-Tetris_2,001,1,
112,0,112,0,4,112,x,x,yes,yes,True,l,270,l,180,0.881583244423,2016_Mar_30_1616,49.9827972158,PL-Tetris_2,001,1,
113,0,113,0,4,113,m,m,no,no,True,l,180,z,90,0.720102951629,2016_Mar_30_1616,49.9827972158,PL-Tetris_2,001,1,
114,0,114,0,4,114,x,x,yes,yes,True,j,180,j,180,0.620598906884,2016_Mar_30_1616,49.9827972158,PL-Tetris_2,001,1,
115,0,115,0,4,115,m,m,no,no,True,t,90,j,90,0.600015907548,2016_Mar_30_1616,49.9827972158,PL-Tetris_2,001,1,
116,0,116,0,4,116,x,x,yes,yes,True,l,90,l,270,0.800021698815,2016_Mar_30_1616,49.9827972158,PL-Tetris_2,001,1,
117,0,117,0,4,117,x,x,yes,yes,True,t,0,t,180,0.640168810147,2016_Mar_30_1616,49.9827972158,PL-Tetris_2,001,1,
118,0,118,0,4,118,x,x,yes,yes,True,j,0,j,0,0.620409775991,2016_Mar_30_1616,49.9827972158,PL-Tetris_2,001,1,
119,0,119,0,4,119,x,x,yes,yes,True,l,180,l,90,0.919049463933,2016_Mar_30_1616,49.9827972158,PL-Tetris_2,001,1,
120,0,120,0,4,120,m,m,no,no,True,j,0,t,0,0.500283512869,2016_Mar_30_1616,49.9827972158,PL-Tetris_2,001,1,
